"Time (s)","Acceleration x (m/s^2)","Acceleration y (m/s^2)","Acceleration z (m/s^2)","Absolute acceleration (m/s^2)"
1.159088300E-2,-9.000000544E-3,-2.160000056E-1,1.019505024E1,1.019734212E1
1.357802800E-2,-4.050000105E-3,-2.329500169E-1,1.018605042E1,1.018871460E1
1.556541200E-2,-1.305000018E-2,-2.299500108E-1,1.016700077E1,1.016960923E1
1.755279700E-2,2.595000155E-2,-2.160000056E-1,1.011195087E1,1.011429087E1
1.954018200E-2,4.500000179E-2,-2.299500108E-1,1.011600018E1,1.011871343E1
2.152757800E-2,6.900000572E-2,-2.059500068E-1,1.009005070E1,1.009238820E1
2.351519200E-2,6.000000238E-2,-2.040000111E-1,1.005405045E1,1.005629884E1
2.550257800E-2,6.495000422E-2,-1.920000017E-1,1.002105045E1,1.002310005E1
2.749003800E-2,6.705000252E-2,-1.579500139E-1,1.001100063E1,1.001247110E1
2.947742500E-2,9.795000404E-2,-1.459500045E-1,9.987000465E0,9.988547137E0
3.146483200E-2,1.009500027E-1,-1.489500105E-1,9.954000473E0,9.955626672E0
3.345214000E-2,9.105000645E-2,-1.390500069E-1,9.951000214E0,9.952388169E0
3.543952200E-2,1.129500046E-1,-1.579500139E-1,9.973050117E0,9.974940328E0
3.742690700E-2,9.300000221E-2,-1.630500108E-1,9.958050728E0,9.959819707E0
3.941429200E-2,8.895000070E-2,-1.770000011E-1,9.967950821E0,9.969918990E0
4.140144800E-2,7.695000619E-2,-1.849500090E-1,1.000605011E1,1.000805509E1
4.338878100E-2,6.705000252E-2,-1.819500029E-1,1.002105045E1,1.002292640E1
4.537616600E-2,2.895000204E-2,-2.110500038E-1,1.006605053E1,1.006830440E1
4.736301400E-2,1.905000024E-2,-1.920000017E-1,1.007595062E1,1.007779777E1
4.935032000E-2,1.695000008E-2,-1.969500035E-1,1.009500027E1,1.009693553E1
5.133747600E-2,-6.000000052E-3,-2.130000144E-1,1.014495087E1,1.014718843E1
5.332455300E-2,-3.495000303E-2,-2.230500132E-1,1.014495087E1,1.014746278E1
5.531185700E-2,-2.100000158E-2,-2.329500169E-1,1.015695095E1,1.015964366E1
5.729901300E-2,-3.299999982E-2,-2.280000150E-1,1.014705086E1,1.014966571E1
5.928609000E-2,-3.705000132E-2,-2.520000041E-1,1.016700077E1,1.017019082E1
6.127339600E-2,-3.705000132E-2,-2.490000129E-1,1.017105007E1,1.017416499E1
6.326047500E-2,-2.505000122E-2,-2.470500171E-1,1.019100094E1,1.019402577E1
6.524755200E-2,-3.000000119E-2,-2.419500053E-1,1.016895008E1,1.017187227E1
6.723474000E-2,-1.095000096E-2,-2.280000150E-1,1.014705086E1,1.014961797E1
6.922181900E-2,4.950000439E-3,-2.209500074E-1,1.009500027E1,1.009741917E1
7.120912500E-2,-1.050000079E-3,-2.110500038E-1,1.007805061E1,1.008026028E1
7.319628100E-2,3.405000269E-2,-1.920000017E-1,1.005405045E1,1.005594122E1
7.518335800E-2,2.595000155E-2,-1.849500090E-1,1.003995037E1,1.004168728E1
7.717074000E-2,4.305000231E-2,-1.770000011E-1,1.003305054E1,1.003470405E1
7.915808500E-2,5.700000376E-2,-1.750500053E-1,1.000905037E1,1.001074327E1
8.114516400E-2,6.900000572E-2,-2.010000050E-1,1.002300072E1,1.002525338E1
8.313224100E-2,6.000000238E-2,-1.819500029E-1,9.991950035E0,9.993786635E0
8.511931800E-2,7.200000435E-2,-1.849500090E-1,1.002105045E1,1.002301565E1
8.710647000E-2,9.105000645E-2,-1.890000105E-1,1.001595020E1,1.001814701E1
8.909377700E-2,7.695000619E-2,-1.770000011E-1,9.999000549E0,1.000086308E1
9.108095500E-2,6.705000252E-2,-1.770000011E-1,1.002795029E1,1.002973637E1
9.306826100E-2,6.495000422E-2,-2.040000111E-1,1.003995037E1,1.004223272E1
9.505541700E-2,4.800000042E-2,-1.969500035E-1,1.005900002E1,1.006104242E1
9.704241700E-2,3.795000166E-2,-1.849500090E-1,1.007100010E1,1.007276971E1
9.902949200E-2,1.395000052E-2,-2.089500129E-1,1.009200001E1,1.009417252E1
1.010166460E-1,7.050000131E-3,-2.179500163E-1,1.010895061E1,1.011130231E1
1.030039500E-1,1.200000010E-2,-2.230500132E-1,1.014000034E1,1.014246037E1
1.049911060E-1,1.005000062E-2,-2.250000089E-1,1.011600018E1,1.011850708E1
1.069784120E-1,-1.050000079E-3,-2.160000056E-1,1.014300060E1,1.014530031E1
1.089654910E-1,-1.305000018E-2,-2.280000150E-1,1.014300060E1,1.014557123E1
1.109526430E-1,-4.050000105E-3,-2.230500132E-1,1.013100052E1,1.013345643E1
1.129399500E-1,4.950000439E-3,-2.160000056E-1,1.011600018E1,1.011830717E1
1.149271100E-1,1.200000010E-2,-2.010000050E-1,1.011195087E1,1.011395548E1
1.169141870E-1,1.905000024E-2,-2.089500129E-1,1.013100052E1,1.013317297E1
1.189014930E-1,4.950000439E-3,-2.040000111E-1,1.011405087E1,1.011610920E1
1.208886490E-1,3.105000220E-2,-1.969500035E-1,1.009695053E1,1.009891892E1
1.228759540E-1,2.595000155E-2,-1.750500053E-1,1.007295036E1,1.007450470E1
1.248631100E-1,3.795000166E-2,-1.969500035E-1,1.004895020E1,1.005095167E1
1.268504380E-1,4.800000042E-2,-1.890000105E-1,1.003695011E1,1.003884418E1
1.288375940E-1,4.500000179E-2,-1.849500090E-1,1.000905037E1,1.001086014E1
1.308248990E-1,3.105000220E-2,-1.680000126E-1,1.003005028E1,1.003150521E1
1.328120550E-1,5.295000225E-2,-1.699500084E-1,1.003500080E1,1.003657949E1
1.347993610E-1,4.305000231E-2,-1.770000011E-1,1.003500080E1,1.003665399E1
1.367865170E-1,4.500000179E-2,-1.680000126E-1,1.004205036E1,1.004355637E1
1.387741420E-1,4.800000042E-2,-1.680000126E-1,1.004700089E1,1.004852003E1
1.407612980E-1,2.895000204E-2,-1.750500053E-1,1.004700089E1,1.004856743E1
1.427486040E-1,2.400000021E-2,-1.770000011E-1,1.003695011E1,1.003853936E1
1.447359880E-1,2.595000155E-2,-1.770000011E-1,1.006800079E1,1.006958998E1
1.467233730E-1,1.395000052E-2,-1.800000072E-1,1.005900002E1,1.006062006E1
1.487105290E-1,1.395000052E-2,-1.750500053E-1,1.006605053E1,1.006758215E1
1.506979230E-1,-9.000000544E-3,-1.990500093E-1,1.009200001E1,1.009396681E1
1.526852320E-1,-6.000000052E-3,-1.920000017E-1,1.012095070E1,1.012277349E1
1.546726150E-1,1.005000062E-2,-1.870500147E-1,1.010895061E1,1.011068599E1
1.566596940E-1,-9.000000544E-3,-1.939500123E-1,1.011600018E1,1.011786327E1
1.586468480E-1,0.000000000E0,-1.849500090E-1,1.012605095E1,1.012773984E1
1.606339250E-1,-4.050000105E-3,-2.010000050E-1,1.011195087E1,1.011394917E1
1.626210110E-1,-1.050000079E-3,-1.870500147E-1,1.011600018E1,1.011772941E1
1.646083170E-1,1.395000052E-2,-1.770000011E-1,1.010205078E1,1.010361092E1
1.665953960E-1,1.200000010E-2,-2.010000050E-1,1.012095070E1,1.012295352E1
1.685825480E-1,7.050000131E-3,-1.750500053E-1,1.009200001E1,1.009352051E1
1.705696270E-1,1.695000008E-2,-1.870500147E-1,1.007805061E1,1.007980055E1
1.725566270E-1,1.695000008E-2,-1.609500051E-1,1.006800079E1,1.006930147E1
1.745440480E-1,3.405000269E-2,-1.750500053E-1,1.006800079E1,1.006958003E1
1.765311270E-1,4.500000179E-2,-1.699500084E-1,1.004895020E1,1.005048795E1
1.785182790E-1,4.305000231E-2,-1.849500090E-1,1.004205036E1,1.004384564E1
1.805053580E-1,4.305000231E-2,-1.680000126E-1,1.003695011E1,1.003844833E1
1.824926640E-1,4.995000362E-2,-1.750500053E-1,1.004895020E1,1.005059886E1
1.844798200E-1,7.695000619E-2,-1.699500084E-1,1.003305054E1,1.003478487E1
1.864669020E-1,5.700000376E-2,-1.870500147E-1,1.004895020E1,1.005085254E1
1.884539790E-1,5.505000427E-2,-1.990500093E-1,1.005405045E1,1.005617133E1
1.904412840E-1,5.505000427E-2,-1.770000011E-1,1.006395054E1,1.006565745E1
1.924284400E-1,4.500000179E-2,-1.939500123E-1,1.006605053E1,1.006801941E1
1.944157460E-1,5.505000427E-2,-1.890000105E-1,1.003695011E1,1.003888037E1
1.964029020E-1,4.305000231E-2,-2.059500068E-1,1.006395054E1,1.006614967E1
1.983902160E-1,5.295000225E-2,-2.160000056E-1,1.007295036E1,1.007540514E1
2.003773720E-1,4.995000362E-2,-2.179500163E-1,1.009995079E1,1.010242561E1
2.023646780E-1,4.500000179E-2,-2.160000056E-1,1.010700035E1,1.010940835E1
2.043518340E-1,2.595000155E-2,-2.010000050E-1,1.010700035E1,1.010903212E1
2.063391390E-1,2.205000073E-2,-1.969500035E-1,1.011600018E1,1.011794125E1
2.083262950E-1,4.995000362E-2,-2.110500038E-1,1.012395000E1,1.012627280E1
2.103136980E-1,4.305000231E-2,-1.939500123E-1,1.008300018E1,1.008495724E1
2.123013130E-1,5.295000225E-2,-2.209500074E-1,1.009005070E1,1.009260847E1
2.142887770E-1,4.995000362E-2,-2.059500068E-1,1.009200001E1,1.009422481E1
2.162763900E-1,4.800000042E-2,-2.179500163E-1,1.009500027E1,1.009746684E1
2.182637770E-1,6.000000238E-2,-1.920000017E-1,1.007595062E1,1.007795837E1
2.202512360E-1,4.995000362E-2,-2.280000150E-1,1.007295036E1,1.007565422E1
2.222388470E-1,5.700000376E-2,-1.990500093E-1,1.007295036E1,1.007507811E1
2.242263100E-1,5.505000427E-2,-2.010000050E-1,1.006395054E1,1.006610808E1
2.262136180E-1,5.295000225E-2,-1.990500093E-1,1.004700089E1,1.004911197E1
2.282010010E-1,4.305000231E-2,-1.819500029E-1,1.003995037E1,1.004169122E1
2.301881570E-1,6.495000422E-2,-1.939500123E-1,1.006605053E1,1.006812835E1
2.321755390E-1,4.800000042E-2,-1.920000017E-1,1.003995037E1,1.004190079E1
2.341628780E-1,6.705000252E-2,-1.819500029E-1,1.005900002E1,1.006086889E1
2.361502600E-1,5.700000376E-2,-1.699500084E-1,1.005405045E1,1.005564828E1
2.381376450E-1,4.095000029E-2,-1.969500035E-1,1.007100010E1,1.007300894E1
2.401248010E-1,4.500000179E-2,-2.040000111E-1,1.007595062E1,1.007811599E1
2.421121840E-1,3.600000218E-2,-1.969500035E-1,1.006800079E1,1.006999132E1
2.440995680E-1,2.205000073E-2,-2.059500068E-1,1.007295036E1,1.007507968E1
2.460871880E-1,7.050000131E-3,-1.870500147E-1,1.008495045E1,1.008668741E1
2.480745740E-1,1.395000052E-2,-1.920000017E-1,1.009500027E1,1.009683559E1
2.500619590E-1,1.005000062E-2,-2.010000050E-1,1.006395054E1,1.006596257E1
2.520494180E-1,1.005000062E-2,-1.969500035E-1,1.009005070E1,1.009197767E1
2.540370340E-1,1.005000062E-2,-2.040000111E-1,1.010400009E1,1.010606426E1
2.560244970E-1,-1.050000079E-3,-2.059500068E-1,1.009005070E1,1.009215238E1
2.580118870E-1,7.050000131E-3,-2.130000144E-1,1.011195087E1,1.011419642E1
2.599992720E-1,4.950000439E-3,-2.010000050E-1,1.009995079E1,1.010195186E1
2.619866560E-1,0.000000000E0,-2.130000144E-1,1.009005070E1,1.009229865E1
2.639742700E-1,4.950000439E-3,-2.010000050E-1,1.008795071E1,1.008995416E1
2.659617330E-1,1.005000062E-2,-2.089500129E-1,1.009005070E1,1.009221899E1
2.679491180E-1,1.395000052E-2,-1.969500035E-1,1.007295036E1,1.007488526E1
2.699364880E-1,1.005000062E-2,-1.969500035E-1,1.007595062E1,1.007788030E1
2.719238730E-1,1.200000010E-2,-1.990500093E-1,1.006095028E1,1.006292629E1
2.739111810E-1,1.905000024E-2,-1.939500123E-1,1.006800079E1,1.006988677E1
2.758983340E-1,3.600000218E-2,-1.800000072E-1,1.004895020E1,1.005062665E1
2.778856400E-1,2.205000073E-2,-1.870500147E-1,1.006395054E1,1.006571281E1
2.798724880E-1,1.200000010E-2,-1.800000072E-1,1.008000088E1,1.008161503E1
2.818598660E-1,2.895000204E-2,-1.920000017E-1,1.004895020E1,1.005082594E1
2.838471740E-1,2.595000155E-2,-1.920000017E-1,1.006605053E1,1.006791491E1
2.858345580E-1,1.200000010E-2,-1.849500090E-1,1.006605053E1,1.006775664E1
2.878219430E-1,2.895000204E-2,-1.750500053E-1,1.005900002E1,1.006056469E1
2.898093280E-1,2.895000204E-2,-1.800000072E-1,1.005195045E1,1.005360363E1
2.917967890E-1,1.905000024E-2,-1.849500090E-1,1.005405045E1,1.005576948E1
2.937844040E-1,3.600000218E-2,-1.870500147E-1,1.009500027E1,1.009679722E1
2.957717910E-1,2.205000073E-2,-1.939500123E-1,1.008000088E1,1.008189072E1
2.977592510E-1,1.005000062E-2,-2.040000111E-1,1.007295036E1,1.007502089E1
2.997466370E-1,1.200000010E-2,-2.160000056E-1,1.007595062E1,1.007827272E1
3.017340220E-1,3.105000220E-2,-2.089500129E-1,1.008795071E1,1.009016222E1
3.037213300E-1,1.695000008E-2,-2.110500038E-1,1.009200001E1,1.009422080E1
3.057084920E-1,1.695000008E-2,-2.160000056E-1,1.009695053E1,1.009927489E1
3.076955690E-1,2.895000204E-2,-2.010000050E-1,1.007805061E1,1.008009639E1
3.096829520E-1,2.400000021E-2,-2.299500108E-1,1.008000088E1,1.008265197E1
3.116705670E-1,2.895000204E-2,-2.089500129E-1,1.009200001E1,1.009420439E1
3.136576460E-1,2.205000073E-2,-2.059500068E-1,1.006095028E1,1.006308214E1
3.156450290E-1,2.205000073E-2,-2.130000144E-1,1.006395054E1,1.006622847E1
3.176324140E-1,3.795000166E-2,-1.920000017E-1,1.006800079E1,1.006990289E1
3.196194920E-1,3.105000220E-2,-2.040000111E-1,1.007100010E1,1.007311387E1
3.216068750E-1,3.600000218E-2,-1.969500035E-1,1.006605053E1,1.006804145E1
3.235940310E-1,4.305000231E-2,-2.209500074E-1,1.006605053E1,1.006856720E1
3.255813370E-1,4.095000029E-2,-1.969500035E-1,1.006605053E1,1.006806036E1
3.275684920E-1,3.795000166E-2,-1.990500093E-1,1.005900002E1,1.006104082E1
3.295558750E-1,5.295000225E-2,-2.059500068E-1,1.006800079E1,1.007024623E1
3.315431850E-1,3.795000166E-2,-2.059500068E-1,1.005900002E1,1.006117970E1
3.335303390E-1,3.405000269E-2,-1.819500029E-1,1.005600071E1,1.005770428E1
3.355174160E-1,4.305000231E-2,-1.990500093E-1,1.005600071E1,1.005806266E1
3.375047210E-1,1.695000008E-2,-1.890000105E-1,1.007595062E1,1.007773731E1
3.394918000E-1,1.695000008E-2,-1.890000105E-1,1.007100010E1,1.007278766E1
3.414789330E-1,1.005000062E-2,-1.920000017E-1,1.007805061E1,1.007988438E1
3.434662410E-1,2.595000155E-2,-1.990500093E-1,1.007595062E1,1.007794995E1
3.454533970E-1,4.950000439E-3,-1.990500093E-1,1.006395054E1,1.006592002E1
3.474407020E-1,1.200000010E-2,-1.969500035E-1,1.009005070E1,1.009197980E1
3.494278580E-1,1.395000052E-2,-1.939500123E-1,1.008000088E1,1.008187626E1
3.514151640E-1,2.205000073E-2,-1.890000105E-1,1.008000088E1,1.008179671E1
3.534023150E-1,1.200000010E-2,-1.990500093E-1,1.007595062E1,1.007792369E1
3.553896200E-1,1.695000008E-2,-2.010000050E-1,1.007805061E1,1.008006907E1
3.573766990E-1,7.050000131E-3,-1.870500147E-1,1.008795071E1,1.008968715E1
3.593640820E-1,2.205000073E-2,-2.089500129E-1,1.007595062E1,1.007814106E1
3.613512380E-1,7.050000131E-3,-1.870500147E-1,1.008795071E1,1.008968715E1
3.633385430E-1,1.395000052E-2,-1.890000105E-1,1.008000088E1,1.008178225E1
3.653259030E-1,1.695000008E-2,-2.010000050E-1,1.008795071E1,1.008996718E1
3.673129820E-1,1.005000062E-2,-1.870500147E-1,1.007595062E1,1.007769168E1
3.693000590E-1,1.695000008E-2,-1.750500053E-1,1.005195045E1,1.005348883E1
3.712874420E-1,1.695000008E-2,-1.819500029E-1,1.006095028E1,1.006260968E1
3.732749030E-1,1.200000010E-2,-1.849500090E-1,1.006395054E1,1.006565701E1
3.752622900E-1,1.905000024E-2,-1.770000011E-1,1.006605053E1,1.006762460E1
3.772496690E-1,1.200000010E-2,-1.870500147E-1,1.006095028E1,1.006269607E1
3.792370540E-1,3.600000218E-2,-1.819500029E-1,1.006095028E1,1.006265980E1
3.812244390E-1,2.595000155E-2,-1.800000072E-1,1.007295036E1,1.007459192E1
3.832118230E-1,1.905000024E-2,-1.849500090E-1,1.008000088E1,1.008171548E1
3.851991310E-1,1.695000008E-2,-1.870500147E-1,1.006605053E1,1.006780255E1
3.871865140E-1,2.400000021E-2,-2.040000111E-1,1.004895020E1,1.005104930E1
3.891738930E-1,1.200000010E-2,-2.010000050E-1,1.006095028E1,1.006296505E1
3.911612780E-1,2.400000021E-2,-1.890000105E-1,1.006800079E1,1.006980322E1
3.931486620E-1,2.595000155E-2,-1.819500029E-1,1.007805061E1,1.007972635E1
3.951360470E-1,2.205000073E-2,-1.870500147E-1,1.009200001E1,1.009375738E1
3.971235090E-1,2.205000073E-2,-1.890000105E-1,1.007100010E1,1.007279754E1
3.991108180E-1,2.595000155E-2,-1.660500020E-1,1.006605053E1,1.006745346E1
4.010979770E-1,2.895000204E-2,-1.969500035E-1,1.007100010E1,1.007296731E1
4.030853600E-1,2.205000073E-2,-1.939500123E-1,1.008000088E1,1.008189072E1
4.050729750E-1,2.205000073E-2,-1.750500053E-1,1.006395054E1,1.006549696E1
4.070603620E-1,3.795000166E-2,-1.819500029E-1,1.009005070E1,1.009176244E1
4.090477460E-1,3.405000269E-2,-1.969500035E-1,1.008495045E1,1.008693086E1
4.110351310E-1,2.595000155E-2,-1.969500035E-1,1.008495045E1,1.008690677E1
4.130225540E-1,3.795000166E-2,-1.750500053E-1,1.008000088E1,1.008159216E1
4.150100130E-1,3.795000166E-2,-2.059500068E-1,1.006395054E1,1.006612915E1
4.169974000E-1,3.795000166E-2,-1.870500147E-1,1.006095028E1,1.006276048E1
4.189847070E-1,4.500000179E-2,-1.870500147E-1,1.005600071E1,1.005784087E1
4.209721670E-1,2.400000021E-2,-1.870500147E-1,1.007805061E1,1.007981487E1
4.229595400E-1,4.095000029E-2,-1.890000105E-1,1.006605053E1,1.006790798E1
4.249469240E-1,2.895000204E-2,-1.939500123E-1,1.006095028E1,1.006286119E1
4.269345380E-1,4.095000029E-2,-1.969500035E-1,1.006095028E1,1.006296113E1
4.289220010E-1,3.795000166E-2,-2.059500068E-1,1.007595062E1,1.007812664E1
4.309093860E-1,4.800000042E-2,-1.800000072E-1,1.007595062E1,1.007767260E1
4.328966930E-1,3.600000218E-2,-1.969500035E-1,1.007805061E1,1.008003916E1
4.348840810E-1,2.895000204E-2,-1.849500090E-1,1.007100010E1,1.007273983E1
4.368712370E-1,4.800000042E-2,-1.870500147E-1,1.006395054E1,1.006580311E1
4.388586200E-1,3.600000218E-2,-2.010000050E-1,1.008000088E1,1.008206897E1
4.408460040E-1,2.400000021E-2,-2.010000050E-1,1.007295036E1,1.007498417E1
4.428333140E-1,2.895000204E-2,-2.110500038E-1,1.007595062E1,1.007820228E1
4.448204680E-1,4.095000029E-2,-2.130000144E-1,1.009005070E1,1.009238173E1
4.468078210E-1,3.600000218E-2,-2.010000050E-1,1.008495045E1,1.008701752E1
4.487951310E-1,3.105000220E-2,-1.969500035E-1,1.006800079E1,1.006997485E1
4.507825140E-1,3.105000220E-2,-1.870500147E-1,1.008000088E1,1.008178404E1
4.527696700E-1,4.500000179E-2,-1.939500123E-1,1.008300018E1,1.008496576E1
4.547570520E-1,3.105000220E-2,-1.890000105E-1,1.007805061E1,1.007987050E1
4.567444370E-1,3.600000218E-2,-2.059500068E-1,1.005195045E1,1.005412449E1
4.587317410E-1,2.400000021E-2,-2.040000111E-1,1.006395054E1,1.006604652E1
4.607188950E-1,2.895000204E-2,-1.849500090E-1,1.008300018E1,1.008473784E1
4.627062010E-1,3.795000166E-2,-1.969500035E-1,1.007805061E1,1.008004631E1
4.646933570E-1,2.595000155E-2,-2.010000050E-1,1.008795071E1,1.008998632E1
4.666804340E-1,1.695000008E-2,-2.059500068E-1,1.005600071E1,1.005812373E1
4.686677390E-1,4.500000179E-2,-1.939500123E-1,1.007100010E1,1.007296801E1
4.706548900E-1,3.105000220E-2,-2.040000111E-1,1.006395054E1,1.006606579E1
4.726421960E-1,4.095000029E-2,-1.890000105E-1,1.007805061E1,1.007990586E1
4.746293520E-1,2.205000073E-2,-2.040000111E-1,1.006800079E1,1.007009147E1
4.766166580E-1,3.405000269E-2,-2.059500068E-1,1.005900002E1,1.006116574E1
4.786037370E-1,1.695000008E-2,-2.040000111E-1,1.005600071E1,1.005808399E1
4.805908880E-1,1.395000052E-2,-1.990500093E-1,1.008300018E1,1.008497438E1
4.825779670E-1,2.595000155E-2,-2.059500068E-1,1.006800079E1,1.007014046E1
4.845652730E-1,1.200000010E-2,-1.939500123E-1,1.007100010E1,1.007287464E1
4.865523520E-1,1.005000062E-2,-1.969500035E-1,1.006395054E1,1.006588251E1
4.885395040E-1,2.400000021E-2,-1.939500123E-1,1.007100010E1,1.007289609E1
4.905268880E-1,2.895000204E-2,-1.849500090E-1,1.009005070E1,1.009178714E1
4.925142730E-1,1.905000024E-2,-1.990500093E-1,1.007595062E1,1.007793455E1
4.945016490E-1,2.205000073E-2,-1.819500029E-1,1.008495045E1,1.008661576E1
4.964889580E-1,3.795000166E-2,-2.059500068E-1,1.009200001E1,1.009417256E1
4.984764180E-1,2.400000021E-2,-2.010000050E-1,1.006395054E1,1.006598616E1
5.004637280E-1,4.800000042E-2,-1.969500035E-1,1.009005070E1,1.009208682E1
5.024511100E-1,3.795000166E-2,-1.920000017E-1,1.008000088E1,1.008190071E1
5.044385720E-1,1.905000024E-2,-1.969500035E-1,1.006395054E1,1.006589552E1
5.064256310E-1,2.205000073E-2,-2.059500068E-1,1.007100010E1,1.007312983E1
5.084132440E-1,3.795000166E-2,-1.939500123E-1,1.008300018E1,1.008493676E1
5.104006310E-1,3.600000218E-2,-2.010000050E-1,1.006605053E1,1.006812149E1
5.123877850E-1,3.405000269E-2,-1.920000017E-1,1.006395054E1,1.006583945E1
5.143750900E-1,2.595000155E-2,-1.890000105E-1,1.006800079E1,1.006980806E1
5.163624750E-1,3.405000269E-2,-1.990500093E-1,1.007100010E1,1.007302454E1
5.183499170E-1,2.895000204E-2,-2.010000050E-1,1.007100010E1,1.007304731E1
5.203369960E-1,4.800000042E-2,-1.990500093E-1,1.006605053E1,1.006813280E1
5.223243020E-1,4.500000179E-2,-1.920000017E-1,1.007100010E1,1.007293066E1
5.243116870E-1,3.795000166E-2,-1.920000017E-1,1.007805061E1,1.007995081E1
5.262988420E-1,3.795000166E-2,-1.819500029E-1,1.008300018E1,1.008471312E1
5.282861480E-1,3.795000166E-2,-1.920000017E-1,1.006605053E1,1.006795299E1
5.302733090E-1,4.305000231E-2,-1.939500123E-1,1.005600071E1,1.005796302E1
5.322603860E-1,5.295000225E-2,-1.849500090E-1,1.007595062E1,1.007778702E1
5.342477690E-1,3.795000166E-2,-2.110500038E-1,1.007595062E1,1.007823215E1
5.362350760E-1,4.500000179E-2,-2.179500163E-1,1.006605053E1,1.006851034E1
5.382224610E-1,4.500000179E-2,-2.010000050E-1,1.005900002E1,1.006110865E1
5.402099220E-1,5.295000225E-2,-1.729500145E-1,1.007295036E1,1.007457416E1
5.421972270E-1,4.995000362E-2,-1.969500035E-1,1.006800079E1,1.007005086E1
5.441846100E-1,3.105000220E-2,-1.939500123E-1,1.007805061E1,1.007996453E1
5.461720710E-1,2.595000155E-2,-1.890000105E-1,1.007595062E1,1.007775646E1
5.481596870E-1,4.500000179E-2,-2.059500068E-1,1.007805061E1,1.008025518E1
5.501470730E-1,4.305000231E-2,-1.870500147E-1,1.008000088E1,1.008182814E1
5.521342270E-1,3.105000220E-2,-1.870500147E-1,1.006395054E1,1.006573655E1
5.541215580E-1,2.400000021E-2,-1.750500053E-1,1.005900002E1,1.006055167E1
5.561089420E-1,3.405000269E-2,-1.920000017E-1,1.006395054E1,1.006583945E1
5.580963270E-1,1.905000024E-2,-1.969500035E-1,1.005900002E1,1.006094596E1
5.600834830E-1,2.895000204E-2,-1.920000017E-1,1.005195045E1,1.005382564E1
5.620707890E-1,2.895000204E-2,-2.130000144E-1,1.006095028E1,1.006324638E1
5.640579440E-1,2.595000155E-2,-1.939500123E-1,1.007595062E1,1.007785051E1
5.660452740E-1,2.595000155E-2,-1.939500123E-1,1.007100010E1,1.007290092E1
5.680326590E-1,1.905000024E-2,-1.969500035E-1,1.008300018E1,1.008494149E1
5.700200430E-1,2.400000021E-2,-1.939500123E-1,1.006395054E1,1.006584786E1
5.720071990E-1,2.400000021E-2,-1.920000017E-1,1.007805061E1,1.007990794E1
5.739945050E-1,1.695000008E-2,-1.819500029E-1,1.004505062E1,1.004671265E1
5.759818900E-1,1.395000052E-2,-1.890000105E-1,1.006095028E1,1.006273502E1
5.779690550E-1,1.005000062E-2,-1.729500145E-1,1.006095028E1,1.006244171E1
5.799563610E-1,2.595000155E-2,-1.819500029E-1,1.007100010E1,1.007267701E1
5.819437460E-1,1.905000024E-2,-1.969500035E-1,1.003500080E1,1.003695139E1
5.839308250E-1,2.595000155E-2,-1.990500093E-1,1.008000088E1,1.008199940E1
5.859179020E-1,1.005000062E-2,-1.920000017E-1,1.007100010E1,1.007283515E1
5.879052840E-1,1.395000052E-2,-1.939500123E-1,1.007295036E1,1.007482706E1
5.898924110E-1,2.205000073E-2,-1.990500093E-1,1.007805061E1,1.008004024E1
5.918797170E-1,1.395000052E-2,-1.920000017E-1,1.006095028E1,1.006279182E1
5.938671010E-1,1.905000024E-2,-2.089500129E-1,1.008495045E1,1.008713282E1
5.958542570E-1,1.395000052E-2,-1.990500093E-1,1.008000088E1,1.008197566E1
5.978416400E-1,1.695000008E-2,-2.040000111E-1,1.005405045E1,1.005613413E1
5.998290240E-1,1.695000008E-2,-2.179500163E-1,1.007595062E1,1.007832181E1
6.018163200E-1,2.205000073E-2,-1.939500123E-1,1.006395054E1,1.006584340E1
6.038034740E-1,1.695000008E-2,-2.089500129E-1,1.007100010E1,1.007318174E1
6.057907800E-1,1.695000008E-2,-1.920000017E-1,1.006605053E1,1.006789574E1
6.077781640E-1,2.205000073E-2,-1.990500093E-1,1.008300018E1,1.008498883E1
6.097653200E-1,3.600000218E-2,-2.089500129E-1,1.006395054E1,1.006618381E1
6.117523970E-1,1.005000062E-2,-1.890000105E-1,1.005600071E1,1.005778168E1
6.137396690E-1,2.400000021E-2,-1.969500035E-1,1.005600071E1,1.005795782E1
6.157267480E-1,3.795000166E-2,-1.939500123E-1,1.006605053E1,1.006799037E1
6.177138250E-1,2.895000204E-2,-2.040000111E-1,1.005405045E1,1.005616152E1
6.197009770E-1,2.895000204E-2,-2.089500129E-1,1.004700089E1,1.004921514E1
6.216880550E-1,3.795000166E-2,-2.160000056E-1,1.005195045E1,1.005434255E1
6.236753710E-1,3.405000269E-2,-2.059500068E-1,1.008000088E1,1.008216209E1
6.256625270E-1,3.600000218E-2,-1.990500093E-1,1.005600071E1,1.005803496E1
6.276498330E-1,2.595000155E-2,-2.010000050E-1,1.007595062E1,1.007798866E1
6.296369120E-1,3.105000220E-2,-1.920000017E-1,1.007295036E1,1.007482790E1
6.316240630E-1,2.895000204E-2,-2.010000050E-1,1.006605053E1,1.006809875E1
6.336114480E-1,4.095000029E-2,-2.059500068E-1,1.006095028E1,1.006314130E1
6.355988610E-1,2.895000204E-2,-1.969500035E-1,1.003695011E1,1.003892399E1
6.375861700E-1,1.695000008E-2,-1.969500035E-1,1.005900002E1,1.006094220E1
6.395733240E-1,3.405000269E-2,-1.939500123E-1,1.006395054E1,1.006587683E1
6.415607070E-1,2.205000073E-2,-2.179500163E-1,1.006395054E1,1.006633443E1
6.435480920E-1,3.600000218E-2,-1.870500147E-1,1.006605053E1,1.006785265E1
6.455354760E-1,3.105000220E-2,-1.920000017E-1,1.006800079E1,1.006987925E1
6.475228570E-1,3.795000166E-2,-2.040000111E-1,1.008495045E1,1.008708490E1
6.495102410E-1,4.095000029E-2,-2.010000050E-1,1.006395054E1,1.006604085E1
6.514976260E-1,2.895000204E-2,-1.770000011E-1,1.006095028E1,1.006254876E1
6.534852410E-1,2.595000155E-2,-1.870500147E-1,1.007100010E1,1.007277043E1
6.554723970E-1,3.600000218E-2,-2.010000050E-1,1.006395054E1,1.006602193E1
6.574597030E-1,2.895000204E-2,-2.059500068E-1,1.007100010E1,1.007314730E1
6.594468680E-1,4.305000231E-2,-1.920000017E-1,1.005600071E1,1.005792561E1
6.614342500E-1,3.405000269E-2,-1.890000105E-1,1.007100010E1,1.007283095E1
6.634213290E-1,1.395000052E-2,-1.890000105E-1,1.008000088E1,1.008178225E1
6.654086350E-1,1.395000052E-2,-1.890000105E-1,1.007805061E1,1.007983233E1
6.673957910E-1,3.600000218E-2,-1.939500123E-1,1.007295036E1,1.007488172E1
6.693828680E-1,3.405000269E-2,-2.059500068E-1,1.005195045E1,1.005411770E1
6.713701740E-1,3.795000166E-2,-1.890000105E-1,1.006395054E1,1.006579662E1
6.733573290E-1,2.400000021E-2,-1.630500108E-1,1.006800079E1,1.006934960E1
6.753444060E-1,3.795000166E-2,-1.849500090E-1,1.008495045E1,1.008671761E1
6.773317890E-1,3.105000220E-2,-1.800000072E-1,1.005900002E1,1.006065830E1
6.793190970E-1,3.105000220E-2,-1.819500029E-1,1.006800079E1,1.006969264E1
6.813061760E-1,3.600000218E-2,-1.920000017E-1,1.007805061E1,1.007994366E1
6.832933390E-1,2.895000204E-2,-1.890000105E-1,1.006605053E1,1.006786633E1
6.852806450E-1,1.395000052E-2,-1.920000017E-1,1.008300018E1,1.008483769E1
6.872678010E-1,2.205000073E-2,-1.939500123E-1,1.006605053E1,1.006794299E1
6.892551070E-1,2.595000155E-2,-1.770000011E-1,1.008495045E1,1.008653696E1
6.912421860E-1,2.205000073E-2,-1.849500090E-1,1.007805061E1,1.007977167E1
6.932293370E-1,3.795000166E-2,-1.920000017E-1,1.006605053E1,1.006795299E1
6.952167360E-1,4.095000029E-2,-1.770000011E-1,1.005900002E1,1.006064050E1
6.972041210E-1,3.405000269E-2,-1.770000011E-1,1.006605053E1,1.006766416E1
6.991914300E-1,3.405000269E-2,-1.849500090E-1,1.006395054E1,1.006570744E1
7.011785840E-1,3.600000218E-2,-1.969500035E-1,1.005600071E1,1.005799362E1
7.031658900E-1,3.405000269E-2,-1.770000011E-1,1.005195045E1,1.005356635E1
7.051530460E-1,3.105000220E-2,-1.870500147E-1,1.006605053E1,1.006783617E1
7.071401280E-1,3.795000166E-2,-1.939500123E-1,1.005600071E1,1.005794249E1
7.091272050E-1,2.895000204E-2,-1.890000105E-1,1.006800079E1,1.006981624E1
7.111145870E-1,3.105000220E-2,-1.770000011E-1,1.008300018E1,1.008460142E1
7.131016660E-1,3.600000218E-2,-1.890000105E-1,1.007295036E1,1.007478764E1
7.150890490E-1,2.205000073E-2,-1.770000011E-1,1.006605053E1,1.006763073E1
7.170763560E-1,3.405000269E-2,-1.819500029E-1,1.006605053E1,1.006775240E1
7.190635170E-1,2.595000155E-2,-1.890000105E-1,1.006395054E1,1.006575853E1
7.210505940E-1,2.895000204E-2,-1.939500123E-1,1.006095028E1,1.006286119E1
7.230376710E-1,4.800000042E-2,-1.890000105E-1,1.007595062E1,1.007783736E1
7.250247480E-1,3.405000269E-2,-1.870500147E-1,1.005900002E1,1.006079661E1
7.270120540E-1,3.405000269E-2,-1.939500123E-1,1.005900002E1,1.006092726E1
7.289994380E-1,2.895000204E-2,-1.849500090E-1,1.005900002E1,1.006074182E1
7.309868320E-1,3.405000269E-2,-1.920000017E-1,1.006095028E1,1.006283975E1
7.329739880E-1,3.405000269E-2,-1.920000017E-1,1.007805061E1,1.007993688E1
7.349613710E-1,3.405000269E-2,-1.890000105E-1,1.006800079E1,1.006983219E1
7.369486800E-1,4.095000029E-2,-1.849500090E-1,1.004895020E1,1.005073547E1
7.389358340E-1,3.405000269E-2,-1.939500123E-1,1.006800079E1,1.006992631E1
7.409232170E-1,1.905000024E-2,-1.800000072E-1,1.006800079E1,1.006962774E1
7.429105260E-1,3.105000220E-2,-2.089500129E-1,1.005195045E1,1.005416989E1
7.448976800E-1,3.405000269E-2,-1.870500147E-1,1.007100010E1,1.007279455E1
7.468849860E-1,3.405000269E-2,-2.059500068E-1,1.006605053E1,1.006821474E1
7.488721420E-1,3.405000269E-2,-2.110500038E-1,1.007595062E1,1.007821822E1
7.508595240E-1,3.405000269E-2,-2.089500129E-1,1.006800079E1,1.007022639E1
7.528468340E-1,2.595000155E-2,-2.010000050E-1,1.007100010E1,1.007303913E1
7.548339740E-1,2.205000073E-2,-1.939500123E-1,1.004895020E1,1.005084588E1
7.568210510E-1,3.600000218E-2,-2.010000050E-1,1.007805061E1,1.008011910E1
7.588083570E-1,2.205000073E-2,-1.969500035E-1,1.005195045E1,1.005390389E1
7.607954350E-1,3.795000166E-2,-1.969500035E-1,1.005405045E1,1.005605091E1
7.627825870E-1,1.905000024E-2,-2.089500129E-1,1.004700089E1,1.004919150E1
7.647699720E-1,2.205000073E-2,-1.990500093E-1,1.003995037E1,1.004194755E1
7.667570700E-1,4.095000029E-2,-1.990500093E-1,1.005405045E1,1.005610403E1
7.687441470E-1,2.895000204E-2,-2.059500068E-1,1.006800079E1,1.007014863E1
7.707315290E-1,2.205000073E-2,-1.939500123E-1,1.008000088E1,1.008189072E1
7.727186080E-1,3.405000269E-2,-2.040000111E-1,1.007295036E1,1.007507342E1
7.747059140E-1,3.405000269E-2,-2.040000111E-1,1.009200001E1,1.009411906E1
7.766929930E-1,2.595000155E-2,-2.010000050E-1,1.005600071E1,1.005804279E1
7.786801590E-1,3.105000220E-2,-2.010000050E-1,1.006095028E1,1.006300579E1
7.806672380E-1,2.205000073E-2,-2.130000144E-1,1.004895020E1,1.005123153E1
7.826543150E-1,2.595000155E-2,-1.890000105E-1,1.005600071E1,1.005781013E1
7.846416200E-1,4.500000179E-2,-1.990500093E-1,1.005405045E1,1.005612133E1
7.866287760E-1,2.400000021E-2,-2.230500132E-1,1.006800079E1,1.007049985E1
7.886160820E-1,3.105000220E-2,-2.110500038E-1,1.007295036E1,1.007520894E1
7.906031470E-1,2.895000204E-2,-2.130000144E-1,1.007805061E1,1.008034282E1
7.925905290E-1,3.795000166E-2,-2.110500038E-1,1.008000088E1,1.008228149E1
7.945776080E-1,4.095000029E-2,-2.160000056E-1,1.005900002E1,1.006140220E1
7.965647620E-1,3.600000218E-2,-1.990500093E-1,1.007100010E1,1.007303132E1
7.985523760E-1,2.895000204E-2,-2.089500129E-1,1.005195045E1,1.005416362E1
8.005395320E-1,2.400000021E-2,-2.110500038E-1,1.005405045E1,1.005629397E1
8.025269330E-1,2.595000155E-2,-1.990500093E-1,1.005405045E1,1.005605413E1
8.045143180E-1,4.095000029E-2,-1.939500123E-1,1.006095028E1,1.006290286E1
8.065013970E-1,3.795000166E-2,-2.040000111E-1,1.006605053E1,1.006818899E1
8.084884740E-1,2.205000073E-2,-2.010000050E-1,1.006800079E1,1.007003114E1
8.104757790E-1,2.895000204E-2,-2.010000050E-1,1.005900002E1,1.006104967E1
8.124628580E-1,3.795000166E-2,-2.010000050E-1,1.006605053E1,1.006812865E1
8.144500100E-1,2.595000155E-2,-1.990500093E-1,1.006800079E1,1.007000170E1
8.164373180E-1,1.905000024E-2,-1.969500035E-1,1.007100010E1,1.007294372E1
8.184243970E-1,2.205000073E-2,-1.920000017E-1,1.007805061E1,1.007990349E1
8.204114740E-1,2.205000073E-2,-1.920000017E-1,1.007295036E1,1.007480418E1
8.223986250E-1,2.205000073E-2,-1.870500147E-1,1.005600071E1,1.005776437E1
8.243859280E-1,2.400000021E-2,-1.849500090E-1,1.007805061E1,1.007977612E1
8.263730840E-1,1.395000052E-2,-1.870500147E-1,1.006095028E1,1.006269859E1
8.283603900E-1,1.695000008E-2,-1.770000011E-1,1.006605053E1,1.006762085E1
8.303474690E-1,3.105000220E-2,-1.990500093E-1,1.005600071E1,1.005801846E1
8.323343150E-1,2.205000073E-2,-1.800000072E-1,1.008000088E1,1.008163201E1
8.343216210E-1,2.595000155E-2,-1.870500147E-1,1.008000088E1,1.008176963E1
8.363087860E-1,3.105000220E-2,-1.870500147E-1,1.009005070E1,1.009183209E1
8.382958630E-1,2.205000073E-2,-1.890000105E-1,1.008000088E1,1.008179671E1
8.402831690E-1,3.105000220E-2,-1.969500035E-1,1.006095028E1,1.006292571E1
8.422703250E-1,2.400000021E-2,-1.870500147E-1,1.007295036E1,1.007471552E1
8.442574020E-1,3.600000218E-2,-1.870500147E-1,1.004505062E1,1.004685651E1
8.462447070E-1,1.695000008E-2,-2.040000111E-1,1.007100010E1,1.007308028E1
8.482318480E-1,4.995000362E-2,-1.939500123E-1,1.006800079E1,1.006999263E1
8.502191540E-1,3.600000218E-2,-1.870500147E-1,1.007805061E1,1.007985059E1
8.522062330E-1,3.105000220E-2,-1.819500029E-1,1.005405045E1,1.005574464E1
8.541933850E-1,4.305000231E-2,-1.819500029E-1,1.008000088E1,1.008173481E1
8.561806920E-1,3.600000218E-2,-2.010000050E-1,1.006395054E1,1.006602193E1
8.581677710E-1,2.895000204E-2,-1.890000105E-1,1.007100010E1,1.007281500E1
8.601549230E-1,4.095000029E-2,-1.800000072E-1,1.007595062E1,1.007764148E1
8.621422310E-1,3.795000166E-2,-1.890000105E-1,1.005195045E1,1.005379874E1
8.641293100E-1,3.405000269E-2,-1.939500123E-1,1.007100010E1,1.007292505E1
8.661164620E-1,4.095000029E-2,-1.890000105E-1,1.007100010E1,1.007285664E1
8.681035410E-1,1.395000052E-2,-1.990500093E-1,1.005900002E1,1.006097892E1
8.700908460E-1,2.400000021E-2,-1.939500123E-1,1.006395054E1,1.006584786E1
8.720780070E-1,3.405000269E-2,-1.990500093E-1,1.005600071E1,1.005802817E1
8.740653900E-1,3.105000220E-2,-1.969500035E-1,1.007805061E1,1.008002270E1
8.760524690E-1,1.905000024E-2,-2.040000111E-1,1.006605053E1,1.006813549E1
8.780397740E-1,2.400000021E-2,-1.819500029E-1,1.006395054E1,1.006562379E1
8.800269300E-1,2.400000021E-2,-1.849500090E-1,1.007595062E1,1.007767649E1
8.820142220E-1,4.305000231E-2,-2.089500129E-1,1.005900002E1,1.006126208E1
8.840013010E-1,2.205000073E-2,-1.990500093E-1,1.006605053E1,1.006804253E1
8.859884530E-1,1.395000052E-2,-1.849500090E-1,1.005195045E1,1.005366147E1
8.879757600E-1,3.405000269E-2,-1.990500093E-1,1.005405045E1,1.005607829E1
8.899628390E-1,2.205000073E-2,-2.040000111E-1,1.004895020E1,1.005104483E1
8.919499910E-1,3.600000218E-2,-1.920000017E-1,1.006395054E1,1.006584624E1
8.939369930E-1,3.795000166E-2,-1.920000017E-1,1.006095028E1,1.006285371E1
8.959243760E-1,3.405000269E-2,-2.089500129E-1,1.005900002E1,1.006122760E1
8.979115320E-1,3.105000220E-2,-1.969500035E-1,1.006800079E1,1.006997485E1
8.998989140E-1,3.795000166E-2,-1.849500090E-1,1.007595062E1,1.007771937E1
9.018862240E-1,2.595000155E-2,-2.040000111E-1,1.005405045E1,1.005615333E1
9.038733010E-1,7.050000131E-3,-1.920000017E-1,1.005195045E1,1.005378643E1
9.058604060E-1,1.200000010E-2,-1.890000105E-1,1.007100010E1,1.007278055E1
9.078475580E-1,1.005000062E-2,-1.849500090E-1,1.005600071E1,1.005770639E1
9.098349420E-1,4.095000029E-2,-1.890000105E-1,1.006800079E1,1.006985789E1
9.118220210E-1,2.205000073E-2,-1.969500035E-1,1.006800079E1,1.006995112E1
9.138090980E-1,1.200000010E-2,-2.059500068E-1,1.008300018E1,1.008511042E1
9.157960980E-1,1.395000052E-2,-1.849500090E-1,1.006800079E1,1.006970909E1
9.177834520E-1,2.400000021E-2,-1.849500090E-1,1.005405045E1,1.005578007E1
9.197706080E-1,1.695000008E-2,-1.990500093E-1,1.008000088E1,1.008198026E1
9.217579130E-1,2.895000204E-2,-1.969500035E-1,1.006605053E1,1.006801871E1
9.237449920E-1,2.400000021E-2,-1.770000011E-1,1.006800079E1,1.006958514E1
9.257320690E-1,1.905000024E-2,-1.939500123E-1,1.005600071E1,1.005788893E1
9.277192210E-1,1.905000024E-2,-1.990500093E-1,1.005600071E1,1.005798857E1
9.297065040E-1,1.395000052E-2,-2.010000050E-1,1.006800079E1,1.007001666E1
9.316935830E-1,2.205000073E-2,-2.040000111E-1,1.008300018E1,1.008508775E1
9.336809650E-1,2.895000204E-2,-1.920000017E-1,1.006800079E1,1.006987299E1
9.356680440E-1,1.200000010E-2,-1.939500123E-1,1.004505062E1,1.004693001E1
9.376551210E-1,2.400000021E-2,-1.819500029E-1,1.008795071E1,1.008961998E1
9.396425040E-1,2.205000073E-2,-1.890000105E-1,1.007100010E1,1.007279754E1
9.416298880E-1,2.595000155E-2,-2.010000050E-1,1.005600071E1,1.005804279E1
9.436170440E-1,2.400000021E-2,-2.010000050E-1,1.005900002E1,1.006103664E1
9.456043500E-1,7.050000131E-3,-1.990500093E-1,1.006800079E1,1.006997073E1
9.475914290E-1,1.695000008E-2,-2.110500038E-1,1.005195045E1,1.005418009E1
9.495788120E-1,2.205000073E-2,-1.969500035E-1,1.005600071E1,1.005795336E1
9.515658900E-1,3.105000220E-2,-2.059500068E-1,1.006395054E1,1.006610550E1
9.535532450E-1,2.895000204E-2,-1.990500093E-1,1.007100010E1,1.007300859E1
9.555404010E-1,3.795000166E-2,-1.969500035E-1,1.006800079E1,1.006999848E1
9.575274010E-1,3.105000220E-2,-1.990500093E-1,1.006800079E1,1.007001614E1
9.595148610E-1,2.895000204E-2,-1.969500035E-1,1.007595062E1,1.007791687E1
9.615022450E-1,2.895000204E-2,-2.230500132E-1,1.007295036E1,1.007546120E1
9.634896300E-1,3.405000269E-2,-2.209500074E-1,1.006800079E1,1.007048252E1
9.654769390E-1,2.595000155E-2,-2.040000111E-1,1.005900002E1,1.006110186E1
9.674643220E-1,3.600000218E-2,-1.969500035E-1,1.005405045E1,1.005604374E1
9.694517070E-1,1.200000010E-2,-1.920000017E-1,1.005405045E1,1.005589073E1
9.714388630E-1,1.905000024E-2,-1.920000017E-1,1.005900002E1,1.006085027E1
9.734262450E-1,2.895000204E-2,-1.990500093E-1,1.007295036E1,1.007495846E1
9.754135550E-1,3.405000269E-2,-1.969500035E-1,1.008300018E1,1.008498098E1
9.774009460E-1,4.500000179E-2,-2.089500129E-1,1.007595062E1,1.007821740E1
9.793883310E-1,3.405000269E-2,-2.280000150E-1,1.008000088E1,1.008263661E1
9.813757160E-1,3.105000220E-2,-2.130000144E-1,1.006800079E1,1.007030154E1
9.833628720E-1,3.600000218E-2,-1.990500093E-1,1.004700089E1,1.004903695E1
9.853504850E-1,3.405000269E-2,-1.990500093E-1,1.007100010E1,1.007302454E1
9.873376410E-1,2.400000021E-2,-2.010000050E-1,1.005900002E1,1.006103664E1
9.893247180E-1,2.595000155E-2,-2.010000050E-1,1.004700089E1,1.004904479E1
9.913121000E-1,3.405000269E-2,-2.110500038E-1,1.005900002E1,1.006127143E1
9.932994080E-1,4.500000179E-2,-2.089500129E-1,1.007805061E1,1.008031692E1
9.952867930E-1,3.405000269E-2,-2.130000144E-1,1.008795071E1,1.009025658E1
9.972739490E-1,3.795000166E-2,-2.209500074E-1,1.006800079E1,1.007049647E1
9.992612540E-1,2.895000204E-2,-1.939500123E-1,1.006605053E1,1.006796047E1
1.001248333E0,1.200000010E-2,-1.920000017E-1,1.005900002E1,1.006083939E1
1.003235487E0,2.205000073E-2,-1.939500123E-1,1.004895020E1,1.005084588E1
1.005222793E0,2.205000073E-2,-2.089500129E-1,1.004700089E1,1.004919763E1
1.007209949E0,1.905000024E-2,-1.849500090E-1,1.004895020E1,1.005067010E1
1.009197331E0,2.400000021E-2,-1.990500093E-1,1.007295036E1,1.007494546E1
1.011184640E0,3.405000269E-2,-1.939500123E-1,1.006800079E1,1.006992631E1
1.013171999E0,1.695000008E-2,-1.939500123E-1,1.007805061E1,1.007993096E1
1.015159155E0,4.095000029E-2,-2.179500163E-1,1.006605053E1,1.006849305E1
1.017146538E0,1.695000008E-2,-2.059500068E-1,1.004895020E1,1.005107471E1
1.019133923E0,2.595000155E-2,-1.819500029E-1,1.007100010E1,1.007267701E1
1.021121232E0,2.595000155E-2,-1.770000011E-1,1.007100010E1,1.007258881E1
1.023108396E0,2.400000021E-2,-2.040000111E-1,1.005900002E1,1.006109702E1
1.025095473E0,2.400000021E-2,-1.939500123E-1,1.005900002E1,1.006089827E1
1.027083086E0,3.600000218E-2,-1.990500093E-1,1.004505062E1,1.004708708E1
1.029070242E0,2.205000073E-2,-1.770000011E-1,1.007100010E1,1.007257952E1
1.031057625E0,2.205000073E-2,-1.969500035E-1,1.008000088E1,1.008194888E1
1.033044935E0,3.600000218E-2,-1.920000017E-1,1.006800079E1,1.006989573E1
1.035032102E0,3.600000218E-2,-1.819500029E-1,1.005600071E1,1.005771108E1
1.037019408E0,3.105000220E-2,-1.849500090E-1,1.007595062E1,1.007769575E1
1.039006564E0,2.400000021E-2,-1.819500029E-1,1.007295036E1,1.007462212E1
1.040993947E0,3.405000269E-2,-1.800000072E-1,1.007295036E1,1.007461604E1
1.042981026E0,1.905000024E-2,-1.750500053E-1,1.006095028E1,1.006249104E1
1.044968408E0,3.105000220E-2,-1.770000011E-1,1.006800079E1,1.006960442E1
1.046955721E0,5.505000427E-2,-1.750500053E-1,1.006800079E1,1.006967293E1
1.048943105E0,3.600000218E-2,-1.630500108E-1,1.006395054E1,1.006533565E1
1.050930184E0,4.995000362E-2,-1.699500084E-1,1.005900002E1,1.006055959E1
1.052917261E0,2.895000204E-2,-1.750500053E-1,1.006395054E1,1.006551445E1
1.054904338E0,4.095000029E-2,-1.750500053E-1,1.006800079E1,1.006960572E1
1.056891490E0,2.895000204E-2,-1.729500145E-1,1.007295036E1,1.007447660E1
1.058878851E0,5.295000225E-2,-1.699500084E-1,1.004700089E1,1.004857768E1
1.060866158E0,4.305000231E-2,-1.770000011E-1,1.007595062E1,1.007759710E1
1.062853314E0,5.700000376E-2,-1.680000126E-1,1.007595062E1,1.007751229E1
1.064840391E0,4.500000179E-2,-1.800000072E-1,1.006395054E1,1.006566071E1
1.066827774E0,4.095000029E-2,-1.750500053E-1,1.006395054E1,1.006555611E1
1.068815082E0,4.500000179E-2,-1.819500029E-1,1.006395054E1,1.006569577E1
1.070802251E0,4.995000362E-2,-1.870500147E-1,1.006800079E1,1.006986210E1
1.072789557E0,5.505000427E-2,-1.890000105E-1,1.004205036E1,1.004397964E1
1.074776713E0,4.800000042E-2,-2.059500068E-1,1.004895020E1,1.005117503E1
1.076764019E0,5.505000427E-2,-1.920000017E-1,1.006605053E1,1.006803197E1
1.078751174E0,4.500000179E-2,-1.939500123E-1,1.008000088E1,1.008196704E1
1.080738251E0,4.305000231E-2,-1.819500029E-1,1.007805061E1,1.007978488E1
1.082725543E0,4.500000179E-2,-2.010000050E-1,1.007595062E1,1.007805571E1
1.084712391E0,4.500000179E-2,-1.920000017E-1,1.007295036E1,1.007488055E1
1.086699161E0,5.700000376E-2,-1.990500093E-1,1.004205036E1,1.004418465E1
1.088686466E0,4.500000179E-2,-1.890000105E-1,1.004895020E1,1.005082813E1
1.090673851E0,3.600000218E-2,-1.990500093E-1,1.004700089E1,1.004903695E1
1.092661235E0,4.995000362E-2,-2.059500068E-1,1.005600071E1,1.005823348E1
1.094648362E0,3.105000220E-2,-1.990500093E-1,1.004895020E1,1.005096936E1
1.096635439E0,3.600000218E-2,-2.130000144E-1,1.007295036E1,1.007526645E1
1.098622822E0,2.895000204E-2,-2.059500068E-1,1.006800079E1,1.007014863E1
1.100610130E0,3.795000166E-2,-2.040000111E-1,1.007295036E1,1.007508736E1
1.102597514E0,2.400000021E-2,-2.130000144E-1,1.007295036E1,1.007523072E1
1.104584670E0,1.005000062E-2,-1.969500035E-1,1.004895020E1,1.005088505E1
1.106571776E0,3.405000269E-2,-1.990500093E-1,1.007295036E1,1.007497441E1
1.108559159E0,1.905000024E-2,-2.089500129E-1,1.006095028E1,1.006313786E1
1.110546237E0,2.205000073E-2,-2.089500129E-1,1.005195045E1,1.005414612E1
1.112533620E0,1.005000062E-2,-1.969500035E-1,1.004895020E1,1.005088505E1
1.114520928E0,1.395000052E-2,-2.160000056E-1,1.007295036E1,1.007527566E1
1.116508312E0,1.395000052E-2,-2.160000056E-1,1.009500027E1,1.009732049E1
1.118495706E0,1.005000062E-2,-2.130000144E-1,1.006605053E1,1.006830886E1
1.120483168E0,1.200000010E-2,-2.059500068E-1,1.006395054E1,1.006606476E1
1.122470554E0,-1.050000079E-3,-2.089500129E-1,1.004505062E1,1.004722366E1
1.124457939E0,1.200000010E-2,-1.969500035E-1,1.005600071E1,1.005793635E1
1.126445323E0,0.000000000E0,-2.110500038E-1,1.005195045E1,1.005416581E1
1.128432708E0,1.200000010E-2,-2.010000050E-1,1.005600071E1,1.005801647E1
1.130420112E0,1.395000052E-2,-1.990500093E-1,1.007295036E1,1.007492653E1
1.132407496E0,1.695000008E-2,-1.990500093E-1,1.005405045E1,1.005603493E1
1.134394880E0,1.200000010E-2,-1.969500035E-1,1.005900002E1,1.006093508E1
1.136382264E0,2.205000073E-2,-2.010000050E-1,1.007100010E1,1.007302984E1
1.138369879E0,1.005000062E-2,-2.040000111E-1,1.007595062E1,1.007802054E1
1.140357266E0,1.395000052E-2,-2.010000050E-1,1.005600071E1,1.005801898E1
1.142344646E0,4.950000439E-3,-2.089500129E-1,1.006395054E1,1.006612066E1
1.144332031E0,7.050000131E-3,-1.920000017E-1,1.007295036E1,1.007478251E1
1.146319490E0,3.600000218E-2,-1.849500090E-1,1.005600071E1,1.005776579E1
1.148306877E0,2.205000073E-2,-2.059500068E-1,1.006605053E1,1.006818131E1
1.150294262E0,3.795000166E-2,-1.939500123E-1,1.005900002E1,1.006094121E1
1.152281875E0,2.205000073E-2,-1.920000017E-1,1.004505062E1,1.004690958E1
1.154269286E0,1.695000008E-2,-1.990500093E-1,1.005600071E1,1.005798481E1
1.156256439E0,2.895000204E-2,-2.110500038E-1,1.005900002E1,1.006125546E1
1.158243822E0,4.305000231E-2,-1.990500093E-1,1.005405045E1,1.005611280E1
1.160231207E0,4.995000362E-2,-2.059500068E-1,1.005600071E1,1.005823348E1
1.162218591E0,4.305000231E-2,-1.939500123E-1,1.006095028E1,1.006291163E1
1.164205976E0,4.305000231E-2,-1.990500093E-1,1.006395054E1,1.006601086E1
1.166193576E0,3.600000218E-2,-1.990500093E-1,1.004895020E1,1.005098587E1
1.168180963E0,3.795000166E-2,-2.179500163E-1,1.005195045E1,1.005438463E1
1.170168117E0,1.905000024E-2,-2.059500068E-1,1.005600071E1,1.005812749E1
1.172155499E0,4.800000042E-2,-2.040000111E-1,1.007100010E1,1.007318038E1
1.174142809E0,4.305000231E-2,-1.870500147E-1,1.006800079E1,1.006983024E1
1.176130192E0,3.600000218E-2,-2.010000050E-1,1.004205036E1,1.004412627E1
1.178117663E0,4.305000231E-2,-2.130000144E-1,1.005900002E1,1.006134701E1
1.180105356E0,3.105000220E-2,-1.969500035E-1,1.006605053E1,1.006802496E1
1.182092742E0,5.295000225E-2,-2.040000111E-1,1.007595062E1,1.007815463E1
1.184080356E0,2.595000155E-2,-2.089500129E-1,1.007595062E1,1.007815035E1
1.186067742E0,3.405000269E-2,-1.990500093E-1,1.005195045E1,1.005397873E1
1.188055127E0,3.600000218E-2,-2.059500068E-1,1.006095028E1,1.006312237E1
1.190042496E0,4.500000179E-2,-2.089500129E-1,1.005405045E1,1.005632216E1
1.192029650E0,4.095000029E-2,-1.849500090E-1,1.005195045E1,1.005373519E1
1.194017033E0,4.500000179E-2,-2.040000111E-1,1.005405045E1,1.005622053E1
1.196004343E0,4.305000231E-2,-2.040000111E-1,1.006395054E1,1.006610996E1
1.197991420E0,3.600000218E-2,-2.059500068E-1,1.003995037E1,1.004212701E1
1.199978802E0,4.995000362E-2,-2.059500068E-1,1.007595062E1,1.007817897E1
1.201966288E0,3.405000269E-2,-1.890000105E-1,1.005195045E1,1.005378478E1
1.203953674E0,2.205000073E-2,-1.819500029E-1,1.006395054E1,1.006561933E1
1.205940982E0,2.595000155E-2,-1.800000072E-1,1.006605053E1,1.006769321E1
1.207928442E0,2.205000073E-2,-1.819500029E-1,1.006095028E1,1.006261957E1
1.209915751E0,1.695000008E-2,-1.969500035E-1,1.005600071E1,1.005794347E1
1.211903134E0,2.205000073E-2,-1.969500035E-1,1.006395054E1,1.006590165E1
1.213890500E0,3.600000218E-2,-2.010000050E-1,1.006395054E1,1.006602193E1
1.215877655E0,1.395000052E-2,-1.920000017E-1,1.006605053E1,1.006789113E1
1.217865269E0,2.895000204E-2,-1.819500029E-1,1.005600071E1,1.005768831E1
1.219852425E0,1.695000008E-2,-1.870500147E-1,1.007805061E1,1.007980055E1
1.221840038E0,2.895000204E-2,-1.969500035E-1,1.007295036E1,1.007491719E1
1.223827449E0,1.200000010E-2,-1.920000017E-1,1.007595062E1,1.007778691E1
1.225814833E0,1.905000024E-2,-1.870500147E-1,1.007100010E1,1.007275502E1
1.227802218E0,1.905000024E-2,-2.040000111E-1,1.005405045E1,1.005613789E1
1.229789677E0,1.905000024E-2,-2.010000050E-1,1.005900002E1,1.006102605E1
1.231777293E0,1.005000062E-2,-1.920000017E-1,1.006800079E1,1.006983639E1
1.233764679E0,1.005000062E-2,-1.870500147E-1,1.005405045E1,1.005579530E1
1.235752173E0,1.395000052E-2,-1.849500090E-1,1.007295036E1,1.007465782E1
1.237739788E0,1.905000024E-2,-1.870500147E-1,1.007295036E1,1.007470494E1
1.239727175E0,2.205000073E-2,-2.040000111E-1,1.009005070E1,1.009213680E1
1.241714634E0,2.595000155E-2,-1.870500147E-1,1.007100010E1,1.007277043E1
1.243702250E0,1.905000024E-2,-1.819500029E-1,1.006095028E1,1.006261344E1
1.245689637E0,3.105000220E-2,-1.920000017E-1,1.007805061E1,1.007992720E1
1.247677025E0,2.205000073E-2,-1.920000017E-1,1.005600071E1,1.005785765E1
1.249664410E0,3.600000218E-2,-1.870500147E-1,1.006095028E1,1.006275331E1
1.251651794E0,1.200000010E-2,-1.849500090E-1,1.007805061E1,1.007975469E1
1.253639179E0,3.105000220E-2,-1.939500123E-1,1.008000088E1,1.008191442E1
1.255626639E0,3.105000220E-2,-1.990500093E-1,1.005405045E1,1.005606858E1
1.257613948E0,2.595000155E-2,-1.969500035E-1,1.007100010E1,1.007295913E1
1.259601317E0,3.105000220E-2,-1.990500093E-1,1.005405045E1,1.005606858E1
1.261588473E0,4.500000179E-2,-1.870500147E-1,1.007295036E1,1.007478743E1
1.263575778E0,3.600000218E-2,-1.870500147E-1,1.006800079E1,1.006980256E1
1.265562934E0,3.405000269E-2,-1.920000017E-1,1.006395054E1,1.006583945E1
1.267550317E0,4.500000179E-2,-1.939500123E-1,1.007595062E1,1.007791757E1
1.269537627E0,4.995000362E-2,-1.890000105E-1,1.005900002E1,1.006089943E1
1.271524799E0,4.995000362E-2,-1.939500123E-1,1.006605053E1,1.006804275E1
1.273512182E0,3.405000269E-2,-2.040000111E-1,1.007100010E1,1.007312357E1
1.275499492E0,3.600000218E-2,-1.870500147E-1,1.006605053E1,1.006785265E1
1.277486646E0,4.305000231E-2,-1.870500147E-1,1.006800079E1,1.006983024E1
1.279473951E0,3.795000166E-2,-1.870500147E-1,1.006395054E1,1.006576020E1
1.281461107E0,4.995000362E-2,-1.920000017E-1,1.005600071E1,1.005795751E1
1.283448490E0,3.600000218E-2,-1.969500035E-1,1.005600071E1,1.005799362E1
1.285435799E0,4.995000362E-2,-1.969500035E-1,1.005900002E1,1.006105191E1
1.287423182E0,4.995000362E-2,-1.920000017E-1,1.007295036E1,1.007490387E1
1.289410567E0,4.800000042E-2,-1.990500093E-1,1.007100010E1,1.007308135E1
1.291397723E0,3.600000218E-2,-1.770000011E-1,1.006395054E1,1.006557129E1
1.293385014E0,4.500000179E-2,-1.939500123E-1,1.005600071E1,1.005797156E1
1.295372170E0,3.105000220E-2,-1.990500093E-1,1.005405045E1,1.005606858E1
1.297359553E0,2.400000021E-2,-1.939500123E-1,1.006095028E1,1.006284816E1
1.299347168E0,4.095000029E-2,-1.890000105E-1,1.006605053E1,1.006790798E1
1.301334632E0,3.105000220E-2,-1.939500123E-1,1.008000088E1,1.008191442E1
1.303322245E0,3.105000220E-2,-1.870500147E-1,1.007295036E1,1.007473478E1
1.305309627E0,2.895000204E-2,-2.010000050E-1,1.004700089E1,1.004905298E1
1.307297086E0,2.205000073E-2,-1.990500093E-1,1.006800079E1,1.006999241E1
1.309284473E0,2.595000155E-2,-2.010000050E-1,1.008000088E1,1.008203809E1
1.311272086E0,2.895000204E-2,-1.939500123E-1,1.006605053E1,1.006796047E1
1.313259473E0,2.895000204E-2,-1.890000105E-1,1.005600071E1,1.005781832E1
1.315246857E0,2.400000021E-2,-1.920000017E-1,1.005195045E1,1.005381261E1
1.317234218E0,1.395000052E-2,-2.089500129E-1,1.003695011E1,1.003913454E1
1.319221603E0,2.400000021E-2,-2.010000050E-1,1.006605053E1,1.006808573E1
1.321209062E0,1.695000008E-2,-2.089500129E-1,1.006800079E1,1.007018309E1
1.323196449E0,1.905000024E-2,-1.969500035E-1,1.006605053E1,1.006799511E1
1.325184062E0,1.005000062E-2,-2.110500038E-1,1.004895020E1,1.005117123E1
1.327171526E0,2.595000155E-2,-1.990500093E-1,1.005405045E1,1.005605413E1
1.329158915E0,1.200000010E-2,-2.059500068E-1,1.006395054E1,1.006606476E1
1.331146300E0,1.200000010E-2,-1.870500147E-1,1.006800079E1,1.006974536E1
1.333133685E0,1.395000052E-2,-1.849500090E-1,1.005900002E1,1.006070984E1
1.335121298E0,1.950000064E-3,-2.040000111E-1,1.006395054E1,1.006601809E1
1.337108685E0,4.950000439E-3,-1.939500123E-1,1.006605053E1,1.006792006E1
1.339096144E0,1.200000010E-2,-1.920000017E-1,1.006605053E1,1.006788862E1
1.341083429E0,1.200000010E-2,-2.089500129E-1,1.006395054E1,1.006612659E1
1.343070888E0,1.695000008E-2,-2.040000111E-1,1.007100010E1,1.007308028E1
1.345058198E0,1.395000052E-2,-1.920000017E-1,1.007100010E1,1.007283980E1
1.347045658E0,1.200000010E-2,-1.969500035E-1,1.006605053E1,1.006798424E1
1.349033044E0,1.395000052E-2,-1.870500147E-1,1.007100010E1,1.007274666E1
1.351020429E0,1.695000008E-2,-2.040000111E-1,1.006095028E1,1.006303254E1
1.353007819E0,2.595000155E-2,-2.010000050E-1,1.005600071E1,1.005804279E1
1.354995126E0,3.405000269E-2,-2.059500068E-1,1.006395054E1,1.006611520E1
1.356982586E0,1.695000008E-2,-1.969500035E-1,1.005405045E1,1.005599358E1
1.358969972E0,1.395000052E-2,-1.939500123E-1,1.005195045E1,1.005383107E1
1.360957357E0,2.895000204E-2,-1.990500093E-1,1.005600071E1,1.005801219E1
1.362944742E0,2.895000204E-2,-2.059500068E-1,1.007595062E1,1.007809677E1
1.364932360E0,2.400000021E-2,-1.990500093E-1,1.006605053E1,1.006804699E1
1.366919824E0,2.205000073E-2,-1.920000017E-1,1.005900002E1,1.006085640E1
1.368907437E0,1.395000052E-2,-1.990500093E-1,1.004895020E1,1.005093108E1
1.370894824E0,4.800000042E-2,-1.920000017E-1,1.006095028E1,1.006289663E1
1.372882208E0,3.600000218E-2,-2.040000111E-1,1.005600071E1,1.005813413E1
1.374869362E0,1.395000052E-2,-1.870500147E-1,1.006395054E1,1.006569832E1
1.376856750E0,3.105000220E-2,-2.040000111E-1,1.008300018E1,1.008511144E1
1.378844134E0,3.105000220E-2,-1.969500035E-1,1.007805061E1,1.008002270E1
1.380831519E0,5.700000376E-2,-1.890000105E-1,1.007595062E1,1.007788425E1
1.382819134E0,3.405000269E-2,-2.130000144E-1,1.005600071E1,1.005831391E1
1.384806521E0,2.895000204E-2,-2.059500068E-1,1.005900002E1,1.006114978E1
1.386793906E0,4.095000029E-2,-1.920000017E-1,1.006800079E1,1.006991464E1
1.388781078E0,3.795000166E-2,-2.089500129E-1,1.005405045E1,1.005629309E1
1.390768384E0,3.600000218E-2,-1.939500123E-1,1.005600071E1,1.005793532E1
1.392755540E0,3.405000269E-2,-2.110500038E-1,1.006605053E1,1.006832035E1
1.394742923E0,4.305000231E-2,-2.110500038E-1,1.007295036E1,1.007525307E1
1.396730307E0,4.500000179E-2,-2.089500129E-1,1.006395054E1,1.006622002E1
1.398717617E0,4.995000362E-2,-2.040000111E-1,1.006095028E1,1.006314223E1
1.400704781E0,5.295000225E-2,-1.870500147E-1,1.006095028E1,1.006282823E1
1.402692086E0,2.895000204E-2,-1.890000105E-1,1.004895020E1,1.005076908E1
1.404679471E0,5.295000225E-2,-2.040000111E-1,1.007100010E1,1.007320519E1
1.406666933E0,4.800000042E-2,-1.939500123E-1,1.006095028E1,1.006293402E1
1.408654242E0,3.795000166E-2,-2.010000050E-1,1.007295036E1,1.007502706E1
1.410641625E0,4.995000362E-2,-2.010000050E-1,1.005900002E1,1.006113201E1
1.412628986E0,5.505000427E-2,-1.870500147E-1,1.004895020E1,1.005084167E1
1.414616447E0,4.500000179E-2,-1.990500093E-1,1.004895020E1,1.005102213E1
1.416603834E0,5.505000427E-2,-1.849500090E-1,1.006095028E1,1.006280068E1
1.418591218E0,4.095000029E-2,-1.990500093E-1,1.006605053E1,1.006810166E1
1.420578603E0,3.405000269E-2,-2.040000111E-1,1.006800079E1,1.007012489E1
1.422565877E0,3.405000269E-2,-2.089500129E-1,1.007295036E1,1.007517486E1
1.424553259E0,2.895000204E-2,-2.040000111E-1,1.006395054E1,1.006605953E1
1.426540415E0,2.895000204E-2,-1.890000105E-1,1.006395054E1,1.006576671E1
1.428528028E0,2.400000021E-2,-1.969500035E-1,1.006395054E1,1.006590611E1
1.430515492E0,3.795000166E-2,-2.040000111E-1,1.003695011E1,1.003909477E1
1.432502800E0,2.205000073E-2,-1.920000017E-1,1.006095028E1,1.006280630E1
1.434490182E0,3.105000220E-2,-1.819500029E-1,1.006095028E1,1.006264331E1
1.436477567E0,2.595000155E-2,-1.849500090E-1,1.005900002E1,1.006073363E1
1.438464952E0,3.105000220E-2,-1.969500035E-1,1.006095028E1,1.006292571E1
1.440452031E0,2.205000073E-2,-1.920000017E-1,1.005900002E1,1.006085640E1
1.442439413E0,1.695000008E-2,-2.040000111E-1,1.005900002E1,1.006108268E1
1.444426798E0,1.395000052E-2,-1.969500035E-1,1.006095028E1,1.006288748E1
1.446413959E0,1.395000052E-2,-1.849500090E-1,1.006605053E1,1.006775915E1
1.448401264E0,3.795000166E-2,-1.920000017E-1,1.007295036E1,1.007485152E1
1.450388649E0,-1.050000079E-3,-1.890000105E-1,1.007595062E1,1.007772311E1
1.452375805E0,-1.050000079E-3,-1.890000105E-1,1.003695011E1,1.003872948E1
1.454363110E0,1.950000064E-3,-1.819500029E-1,1.005405045E1,1.005569689E1
1.456350266E0,1.905000024E-2,-2.010000050E-1,1.006800079E1,1.007002502E1
1.458337577E0,0.000000000E0,-2.010000050E-1,1.005600071E1,1.005800931E1
1.460324962E0,7.050000131E-3,-1.939500123E-1,1.005900002E1,1.006087211E1
1.462312346E0,4.950000439E-3,-1.699500084E-1,1.004205036E1,1.004348958E1
1.464299502E0,2.895000204E-2,-1.870500147E-1,1.006095028E1,1.006273056E1
1.466286579E0,2.205000073E-2,-1.890000105E-1,1.005600071E1,1.005780083E1
1.468273885E0,2.595000155E-2,-1.800000072E-1,1.006605053E1,1.006769321E1
1.470261389E0,3.405000269E-2,-1.870500147E-1,1.005195045E1,1.005374831E1
1.472248774E0,2.595000155E-2,-1.819500029E-1,1.005900002E1,1.006067893E1
1.474236466E0,2.895000204E-2,-1.800000072E-1,1.006800079E1,1.006965134E1
1.476223776E0,1.905000024E-2,-1.870500147E-1,1.007595062E1,1.007770468E1
1.478211161E0,2.895000204E-2,-2.059500068E-1,1.007595062E1,1.007809677E1
1.480198545E0,2.595000155E-2,-1.890000105E-1,1.006800079E1,1.006980806E1
1.482185934E0,3.795000166E-2,-1.849500090E-1,1.006800079E1,1.006977094E1
1.484173393E0,3.105000220E-2,-2.040000111E-1,1.007100010E1,1.007311387E1
1.486160780E0,4.305000231E-2,-1.870500147E-1,1.005405045E1,1.005588243E1
1.488148165E0,4.800000042E-2,-1.990500093E-1,1.004700089E1,1.004908711E1
1.490135472E0,5.505000427E-2,-1.870500147E-1,1.004700089E1,1.004889272E1
1.492122626E0,3.105000220E-2,-1.819500029E-1,1.005600071E1,1.005769458E1
1.494109932E0,4.800000042E-2,-1.939500123E-1,1.005600071E1,1.005798543E1
1.496097088E0,4.095000029E-2,-1.920000017E-1,1.006800079E1,1.006991464E1
1.498084393E0,3.795000166E-2,-2.059500068E-1,1.008300018E1,1.008517468E1
1.500071778E0,4.305000231E-2,-2.089500129E-1,1.003995037E1,1.004221673E1
1.502058934E0,4.800000042E-2,-1.920000017E-1,1.006605053E1,1.006799589E1
1.504046240E0,4.800000042E-2,-1.969500035E-1,1.005600071E1,1.005804373E1
1.506033415E0,5.295000225E-2,-1.990500093E-1,1.006095028E1,1.006305844E1
1.508020721E0,4.305000231E-2,-2.089500129E-1,1.005600071E1,1.005826345E1
1.510008106E0,4.500000179E-2,-1.890000105E-1,1.004700089E1,1.004887918E1
1.511995490E0,3.105000220E-2,-1.920000017E-1,1.005195045E1,1.005383191E1
1.513982646E0,4.305000231E-2,-1.939500123E-1,1.006800079E1,1.006996077E1
1.515970029E0,4.095000029E-2,-1.920000017E-1,1.008495045E1,1.008686108E1
1.517957427E0,5.505000427E-2,-2.130000144E-1,1.006800079E1,1.007040414E1
1.519944506E0,3.405000269E-2,-1.939500123E-1,1.005900002E1,1.006092726E1
1.521931889E0,3.795000166E-2,-2.010000050E-1,1.005600071E1,1.005808090E1
1.523918968E0,3.405000269E-2,-2.059500068E-1,1.006605053E1,1.006821474E1
1.525906350E0,4.500000179E-2,-2.110500038E-1,1.006800079E1,1.007031316E1
1.527893735E0,3.405000269E-2,-2.089500129E-1,1.008000088E1,1.008222382E1
1.529881115E0,3.105000220E-2,-2.179500163E-1,1.008300018E1,1.008540326E1
1.531868730E0,2.895000204E-2,-2.010000050E-1,1.006800079E1,1.007004861E1
1.533856117E0,1.905000024E-2,-2.160000056E-1,1.007595062E1,1.007828358E1
1.535843501E0,2.205000073E-2,-2.040000111E-1,1.006800079E1,1.007009147E1
1.537830886E0,1.905000024E-2,-1.969500035E-1,1.006395054E1,1.006589552E1
1.539818271E0,3.105000220E-2,-1.969500035E-1,1.005600071E1,1.005797712E1
1.541805745E0,-1.050000079E-3,-2.059500068E-1,1.006395054E1,1.006605767E1
1.543793132E0,1.395000052E-2,-2.010000050E-1,1.007100010E1,1.007301537E1
1.545780745E0,1.005000062E-2,-1.939500123E-1,1.009200001E1,1.009386852E1
1.547768209E0,1.395000052E-2,-1.990500093E-1,1.007295036E1,1.007492653E1
1.549755593E0,7.050000131E-3,-2.010000050E-1,1.005195045E1,1.005396234E1
1.551743207E0,0.000000000E0,-1.990500093E-1,1.006605053E1,1.006801838E1
1.553730588E0,1.950000064E-3,-1.870500147E-1,1.004700089E1,1.004874212E1
1.555718048E0,-6.000000052E-3,-1.870500147E-1,1.004700089E1,1.004874373E1
1.557705434E0,1.950000064E-3,-1.800000072E-1,1.005600071E1,1.005761175E1
1.559692819E0,4.950000439E-3,-1.870500147E-1,1.007100010E1,1.007273822E1
1.561680432E0,-1.050000079E-3,-1.969500035E-1,1.007595062E1,1.007787534E1
1.563667819E0,7.050000131E-3,-1.939500123E-1,1.007805061E1,1.007991917E1
1.565655518E0,4.950000439E-3,-2.059500068E-1,1.007100010E1,1.007310691E1
1.567642905E0,1.395000052E-2,-1.990500093E-1,1.005195045E1,1.005393075E1
1.569630290E0,1.005000062E-2,-1.969500035E-1,1.006800079E1,1.006993199E1
1.571617674E0,1.200000010E-2,-1.920000017E-1,1.005405045E1,1.005589073E1
1.573605059E0,1.395000052E-2,-2.040000111E-1,1.006095028E1,1.006302793E1
1.575592749E0,2.205000073E-2,-1.920000017E-1,1.006095028E1,1.006280630E1
1.577579891E0,2.400000021E-2,-1.890000105E-1,1.005600071E1,1.005780529E1
1.579567504E0,1.200000010E-2,-1.800000072E-1,1.006605053E1,1.006766692E1
1.581554891E0,3.600000218E-2,-2.040000111E-1,1.005900002E1,1.006113280E1
1.583542351E0,3.795000166E-2,-1.849500090E-1,1.009005070E1,1.009181697E1
1.585529966E0,2.400000021E-2,-1.920000017E-1,1.006605053E1,1.006791007E1
1.587517430E0,2.595000155E-2,-1.939500123E-1,1.004505062E1,1.004695635E1
1.589505057E0,3.105000220E-2,-1.800000072E-1,1.004895020E1,1.005061014E1
1.591492444E0,5.700000376E-2,-1.819500029E-1,1.006095028E1,1.006275685E1
1.593479828E0,4.995000362E-2,-1.890000105E-1,1.006095028E1,1.006284932E1
1.595466982E0,4.095000029E-2,-1.750500053E-1,1.005600071E1,1.005760755E1
1.597454595E0,3.405000269E-2,-1.750500053E-1,1.006605053E1,1.006763007E1
1.599441982E0,4.800000042E-2,-1.849500090E-1,1.006095028E1,1.006276458E1
1.601429127E0,4.800000042E-2,-1.969500035E-1,1.006605053E1,1.006809151E1
1.603416510E0,6.000000238E-2,-1.819500029E-1,1.006605053E1,1.006787361E1
1.605403894E0,5.700000376E-2,-1.800000072E-1,1.004895020E1,1.005072381E1
1.607391204E0,4.500000179E-2,-1.770000011E-1,1.007295036E1,1.007460585E1
1.609378358E0,4.995000362E-2,-1.699500084E-1,1.006800079E1,1.006955898E1
1.611365435E0,5.295000225E-2,-2.089500129E-1,1.006605053E1,1.006835821E1
1.613352730E0,4.500000179E-2,-1.870500147E-1,1.007295036E1,1.007478743E1
1.615340115E0,3.795000166E-2,-1.819500029E-1,1.006605053E1,1.006776635E1
1.617327194E0,5.505000427E-2,-2.040000111E-1,1.006095028E1,1.006316884E1
1.619314348E0,3.405000269E-2,-2.010000050E-1,1.006605053E1,1.006811470E1
1.621301961E0,5.295000225E-2,-1.890000105E-1,1.007100010E1,1.007291257E1
1.623289059E0,4.305000231E-2,-2.010000050E-1,1.007805061E1,1.008014675E1
1.625276213E0,6.705000252E-2,-1.920000017E-1,1.005600071E1,1.005805697E1
1.627263519E0,4.800000042E-2,-2.059500068E-1,1.005900002E1,1.006122263E1
1.629250597E0,5.505000427E-2,-1.870500147E-1,1.006800079E1,1.006988869E1
1.631237749E0,3.600000218E-2,-2.040000111E-1,1.006095028E1,1.006308266E1
1.633224828E0,3.105000220E-2,-1.890000105E-1,1.005405045E1,1.005587467E1
1.635212129E0,4.305000231E-2,-2.059500068E-1,1.005600071E1,1.005820158E1
1.637199285E0,1.905000024E-2,-1.990500093E-1,1.004700089E1,1.004899053E1
1.639186362E0,3.795000166E-2,-1.939500123E-1,1.005900002E1,1.006094121E1
1.641173667E0,2.595000155E-2,-1.990500093E-1,1.005600071E1,1.005800401E1
1.643160746E0,3.600000218E-2,-1.990500093E-1,1.006605053E1,1.006808275E1
1.645148129E0,1.905000024E-2,-1.920000017E-1,1.003500080E1,1.003685548E1
1.647134982E0,1.695000008E-2,-2.059500068E-1,1.005600071E1,1.005812373E1
1.649122057E0,3.405000269E-2,-2.130000144E-1,1.009005070E1,1.009235609E1
1.651109365E0,1.695000008E-2,-2.040000111E-1,1.006605053E1,1.006813173E1
1.653096521E0,2.595000155E-2,-2.089500129E-1,1.005900002E1,1.006120345E1
1.655083826E0,2.595000155E-2,-1.890000105E-1,1.004895020E1,1.005076089E1
1.657070905E0,2.595000155E-2,-2.089500129E-1,1.004700089E1,1.004920695E1
1.659058279E0,2.595000155E-2,-1.969500035E-1,1.005600071E1,1.005796267E1
1.661045663E0,1.695000008E-2,-1.890000105E-1,1.006800079E1,1.006978889E1
1.663032742E0,2.595000155E-2,-2.059500068E-1,1.007100010E1,1.007313912E1
1.665020125E0,1.005000062E-2,-2.010000050E-1,1.004700089E1,1.004901631E1
1.667007281E0,1.395000052E-2,-1.870500147E-1,1.006800079E1,1.006974788E1
1.668994358E0,2.205000073E-2,-2.179500163E-1,1.006605053E1,1.006843392E1
1.670981664E0,2.205000073E-2,-1.969500035E-1,1.007295036E1,1.007489973E1
1.672969048E0,1.695000008E-2,-2.130000144E-1,1.005900002E1,1.006126919E1
1.674956204E0,2.205000073E-2,-2.059500068E-1,1.005900002E1,1.006113229E1
1.676943510E0,2.595000155E-2,-2.040000111E-1,1.004505062E1,1.004715539E1
1.678930894E0,3.105000220E-2,-2.040000111E-1,1.004700089E1,1.004911971E1
1.680918050E0,2.595000155E-2,-2.059500068E-1,1.006095028E1,1.006309144E1
1.682905453E0,1.905000024E-2,-2.010000050E-1,1.005600071E1,1.005802735E1
1.684892837E0,2.400000021E-2,-1.939500123E-1,1.005405045E1,1.005594963E1
1.686880222E0,3.795000166E-2,-2.040000111E-1,1.007100010E1,1.007313751E1
1.688867532E0,2.595000155E-2,-1.939500123E-1,1.006605053E1,1.006795229E1
1.690854914E0,3.105000220E-2,-2.040000111E-1,1.008000088E1,1.008211276E1
1.692842376E0,3.105000220E-2,-1.939500123E-1,1.006800079E1,1.006991662E1
1.694829742E0,3.795000166E-2,-2.059500068E-1,1.005600071E1,1.005818104E1
1.696817127E0,4.995000362E-2,-1.920000017E-1,1.007805061E1,1.008000313E1
1.698804512E0,4.800000042E-2,-1.990500093E-1,1.006395054E1,1.006603325E1
1.700791896E0,3.105000220E-2,-2.130000144E-1,1.005405045E1,1.005635438E1
1.702779204E0,4.305000231E-2,-1.990500093E-1,1.006605053E1,1.006811042E1
1.704766358E0,4.305000231E-2,-1.800000072E-1,1.008000088E1,1.008169981E1
1.706753727E0,4.800000042E-2,-1.969500035E-1,1.007595062E1,1.007798959E1
1.708741036E0,4.800000042E-2,-2.110500038E-1,1.006395054E1,1.006627769E1
1.710728190E0,5.505000427E-2,-2.110500038E-1,1.004895020E1,1.005131696E1
1.712715573E0,6.705000252E-2,-1.969500035E-1,1.006395054E1,1.006610081E1
1.714702882E0,4.500000179E-2,-2.040000111E-1,1.006800079E1,1.007016787E1
1.716689959E0,5.700000376E-2,-1.770000011E-1,1.005195045E1,1.005367027E1
1.718677127E0,6.495000422E-2,-1.920000017E-1,1.007295036E1,1.007498941E1
1.720664204E0,6.495000422E-2,-1.920000017E-1,1.006800079E1,1.007004084E1
1.722651510E0,5.700000376E-2,-1.920000017E-1,1.004895020E1,1.005094588E1
1.724638589E0,6.000000238E-2,-1.990500093E-1,1.005600071E1,1.005814949E1
1.726625741E0,4.995000362E-2,-2.040000111E-1,1.005600071E1,1.005819374E1
1.728613048E0,4.095000029E-2,-2.110500038E-1,1.004700089E1,1.004930076E1
1.730600118E0,4.500000179E-2,-2.059500068E-1,1.005600071E1,1.005821011E1
1.732587270E0,5.295000225E-2,-2.040000111E-1,1.005900002E1,1.006120773E1
1.734574349E0,3.105000220E-2,-1.990500093E-1,1.005900002E1,1.006101716E1
1.736561655E0,3.600000218E-2,-1.800000072E-1,1.006095028E1,1.006262473E1
1.738548811E0,2.895000204E-2,-1.890000105E-1,1.006395054E1,1.006576671E1
1.740536116E0,3.105000220E-2,-1.939500123E-1,1.005900002E1,1.006091755E1
1.742522964E0,3.405000269E-2,-1.890000105E-1,1.007100010E1,1.007283095E1
1.744510039E0,2.895000204E-2,-1.939500123E-1,1.006095028E1,1.006286119E1
1.746497116E0,1.005000062E-2,-1.990500093E-1,1.008000088E1,1.008197102E1
1.748484193E0,3.795000166E-2,-1.939500123E-1,1.005900002E1,1.006094121E1
1.750471501E0,2.595000155E-2,-1.770000011E-1,1.007100010E1,1.007258881E1
1.752458657E0,1.695000008E-2,-1.969500035E-1,1.007805061E1,1.007998913E1
1.754445952E0,1.905000024E-2,-2.010000050E-1,1.006800079E1,1.007002502E1
1.756433108E0,7.050000131E-3,-1.990500093E-1,1.006095028E1,1.006292160E1
1.758420491E0,1.200000010E-2,-1.920000017E-1,1.004505062E1,1.004689255E1
1.760407801E0,0.000000000E0,-1.729500145E-1,1.006095028E1,1.006243669E1
1.762394878E0,1.005000062E-2,-2.040000111E-1,1.007295036E1,1.007502089E1
1.764382031E0,1.395000052E-2,-1.920000017E-1,1.006800079E1,1.006984104E1
1.766369308E0,-4.050000105E-3,-2.010000050E-1,1.005600071E1,1.005801013E1
1.768356693E0,-1.095000096E-2,-1.849500090E-1,1.007100010E1,1.007270418E1
1.770343772E0,-6.000000052E-3,-1.890000105E-1,1.006800079E1,1.006977641E1
1.772331154E0,0.000000000E0,-1.729500145E-1,1.006800079E1,1.006948617E1
1.774318233E0,-1.050000079E-3,-1.890000105E-1,1.006605053E1,1.006782476E1
1.776305310E0,1.950000064E-3,-1.990500093E-1,1.006095028E1,1.006291932E1
1.778292387E0,0.000000000E0,-2.010000050E-1,1.005405045E1,1.005605944E1
1.780279464E0,-1.605000161E-2,-1.849500090E-1,1.005600071E1,1.005771417E1
1.782266616E0,1.950000064E-3,-1.920000017E-1,1.005900002E1,1.006083243E1
1.784253923E0,1.005000062E-2,-1.800000072E-1,1.006800079E1,1.006961474E1
1.786241002E0,1.950000064E-3,-1.890000105E-1,1.006395054E1,1.006572527E1
1.788228154E0,-1.050000079E-3,-1.920000017E-1,1.005405045E1,1.005588362E1
1.790215472E0,-1.050000079E-3,-1.819500029E-1,1.005405045E1,1.005569676E1
1.792202628E0,-4.050000105E-3,-1.849500090E-1,1.005600071E1,1.005770218E1
1.794189705E0,1.695000008E-2,-1.969500035E-1,1.007805061E1,1.007998913E1
1.796177010E0,1.200000010E-2,-1.920000017E-1,1.007295036E1,1.007478719E1
1.798164089E0,1.905000024E-2,-1.800000072E-1,1.006095028E1,1.006257837E1
1.800151241E0,1.395000052E-2,-1.800000072E-1,1.006095028E1,1.006257001E1
1.802138549E0,2.895000204E-2,-1.870500147E-1,1.006800079E1,1.006977983E1
1.804125705E0,2.595000155E-2,-1.890000105E-1,1.006095028E1,1.006275881E1
1.806113010E0,3.405000269E-2,-1.800000072E-1,1.006095028E1,1.006261795E1
1.808100089E0,3.105000220E-2,-1.849500090E-1,1.005600071E1,1.005774929E1
1.810087472E0,3.795000166E-2,-1.990500093E-1,1.006800079E1,1.007003978E1
1.812074320E0,3.405000269E-2,-1.939500123E-1,1.005405045E1,1.005597864E1
1.814061606E0,5.295000225E-2,-1.849500090E-1,1.005600071E1,1.005784075E1
1.816048762E0,4.095000029E-2,-1.969500035E-1,1.006800079E1,1.007001024E1
1.818036067E0,5.295000225E-2,-1.920000017E-1,1.005600071E1,1.005797286E1
1.820023146E0,4.800000042E-2,-1.969500035E-1,1.006800079E1,1.007004137E1
1.822010298E0,4.305000231E-2,-1.750500053E-1,1.005900002E1,1.006061515E1
1.823997387E0,3.795000166E-2,-1.890000105E-1,1.004700089E1,1.004885008E1
1.825984693E0,6.495000422E-2,-1.870500147E-1,1.007295036E1,1.007489629E1
1.827971772E0,4.995000362E-2,-2.089500129E-1,1.006605053E1,1.006834288E1
1.829958924E0,5.505000427E-2,-2.010000050E-1,1.007595062E1,1.007810560E1
1.831946231E0,4.305000231E-2,-1.939500123E-1,1.005405045E1,1.005601314E1
1.833933387E0,6.195000187E-2,-1.939500123E-1,1.005405045E1,1.005611181E1
1.835920770E0,6.495000422E-2,-1.920000017E-1,1.005900002E1,1.006104188E1
1.837908154E0,6.900000572E-2,-1.890000105E-1,1.006605053E1,1.006806115E1
1.839895464E0,4.995000362E-2,-2.059500068E-1,1.005600071E1,1.005823348E1
1.841882618E0,5.295000225E-2,-2.040000111E-1,1.007595062E1,1.007815463E1
1.843870001E0,4.500000179E-2,-2.059500068E-1,1.006800079E1,1.007020756E1
1.845857385E0,3.600000218E-2,-1.990500093E-1,1.007295036E1,1.007498119E1
1.847844732E0,2.895000204E-2,-2.089500129E-1,1.007295036E1,1.007515892E1
1.849832041E0,4.800000042E-2,-2.130000144E-1,1.007595062E1,1.007831603E1
1.851819118E0,3.405000269E-2,-2.209500074E-1,1.007805061E1,1.008052987E1
1.853806272E0,3.795000166E-2,-2.010000050E-1,1.006095028E1,1.006302945E1
1.855793578E0,3.795000166E-2,-1.890000105E-1,1.007805061E1,1.007989412E1
1.857780657E0,2.205000073E-2,-1.969500035E-1,1.007100010E1,1.007294984E1
1.859767823E0,2.400000021E-2,-2.059500068E-1,1.005900002E1,1.006113675E1
1.861755438E0,2.895000204E-2,-1.800000072E-1,1.006395054E1,1.006560175E1
1.863742825E0,3.405000269E-2,-1.969500035E-1,1.007595062E1,1.007793281E1
1.865729979E0,1.005000062E-2,-1.969500035E-1,1.007595062E1,1.007788030E1
1.867717361E0,1.005000062E-2,-1.770000011E-1,1.007295036E1,1.007451036E1
1.869704671E0,2.205000073E-2,-1.990500093E-1,1.006395054E1,1.006594295E1
1.871691800E0,2.205000073E-2,-1.969500035E-1,1.006605053E1,1.006800123E1
1.873678877E0,2.205000073E-2,-1.849500090E-1,1.006800079E1,1.006972357E1
1.875666259E0,1.695000008E-2,-1.990500093E-1,1.004895020E1,1.005093569E1
1.877653644E0,4.950000439E-3,-1.800000072E-1,1.006800079E1,1.006961094E1
1.879640954E0,0.000000000E0,-1.990500093E-1,1.005900002E1,1.006096925E1
1.881628413E0,1.005000062E-2,-1.849500090E-1,1.007595062E1,1.007765292E1
1.883615723E0,3.405000269E-2,-1.939500123E-1,1.008000088E1,1.008192411E1
1.885603105E0,1.200000010E-2,-2.010000050E-1,1.006605053E1,1.006806428E1
1.887590184E0,4.950000439E-3,-1.849500090E-1,1.005195045E1,1.005365302E1
1.889577338E0,1.905000024E-2,-1.870500147E-1,1.007805061E1,1.007980430E1
1.891564644E0,1.905000024E-2,-1.699500084E-1,1.007805061E1,1.007950148E1
1.893551800E0,1.695000008E-2,-2.010000050E-1,1.005600071E1,1.005802359E1
1.895538891E0,7.050000131E-3,-1.870500147E-1,1.005600071E1,1.005774267E1
1.897525968E0,7.050000131E-3,-1.969500035E-1,1.004895020E1,1.005088250E1
1.899513273E0,1.695000008E-2,-1.890000105E-1,1.007100010E1,1.007278766E1
1.901500429E0,1.005000062E-2,-1.849500090E-1,1.007100010E1,1.007270324E1
1.903487735E0,1.005000062E-2,-1.920000017E-1,1.005405045E1,1.005588859E1
1.905474891E0,1.695000008E-2,-1.890000105E-1,1.007100010E1,1.007278766E1
1.907462273E0,1.395000052E-2,-1.870500147E-1,1.007805061E1,1.007979595E1
1.909449658E0,1.695000008E-2,-2.040000111E-1,1.009005070E1,1.009212695E1
1.911436968E0,2.205000073E-2,-1.849500090E-1,1.008495045E1,1.008667032E1
1.913424122E0,3.405000269E-2,-1.770000011E-1,1.005900002E1,1.006061478E1
1.915411427E0,2.205000073E-2,-1.849500090E-1,1.005405045E1,1.005577561E1
1.917398583E0,3.795000166E-2,-1.920000017E-1,1.006395054E1,1.006585340E1
1.919385894E0,3.795000166E-2,-1.890000105E-1,1.006605053E1,1.006789623E1
1.921373050E0,2.400000021E-2,-1.969500035E-1,1.007805061E1,1.008000345E1
1.923360432E0,4.500000179E-2,-2.010000050E-1,1.006095028E1,1.006305851E1
1.925347511E0,4.500000179E-2,-1.990500093E-1,1.005195045E1,1.005402177E1
1.927334588E0,5.295000225E-2,-1.920000017E-1,1.006395054E1,1.006592113E1
1.929321665E0,3.795000166E-2,-1.990500093E-1,1.008000088E1,1.008203743E1
1.931308957E0,4.500000179E-2,-2.059500068E-1,1.006395054E1,1.006615820E1
1.933296113E0,4.800000042E-2,-1.990500093E-1,1.005900002E1,1.006108375E1
1.935283418E0,4.305000231E-2,-1.939500123E-1,1.007100010E1,1.007295949E1
1.937270497E0,4.095000029E-2,-1.920000017E-1,1.007100010E1,1.007291338E1
1.939257649E0,4.500000179E-2,-2.110500038E-1,1.005900002E1,1.006131445E1
1.941245034E0,4.995000362E-2,-1.920000017E-1,1.006605053E1,1.006800538E1
1.943232350E0,4.305000231E-2,-1.939500123E-1,1.006095028E1,1.006291163E1
1.945219506E0,3.600000218E-2,-2.040000111E-1,1.004700089E1,1.004913622E1
1.947206812E0,5.295000225E-2,-1.969500035E-1,1.005900002E1,1.006106726E1
1.949193968E0,3.600000218E-2,-1.920000017E-1,1.006605053E1,1.006794583E1
1.951181350E0,4.095000029E-2,-1.890000105E-1,1.006800079E1,1.006985789E1
1.953168735E0,4.800000042E-2,-1.920000017E-1,1.005195045E1,1.005389854E1
1.955156060E0,4.995000362E-2,-1.890000105E-1,1.005600071E1,1.005790069E1
1.957143442E0,4.995000362E-2,-2.040000111E-1,1.004700089E1,1.004919588E1
1.959130827E0,4.800000042E-2,-1.990500093E-1,1.005900002E1,1.006108375E1
1.961117983E0,3.405000269E-2,-1.849500090E-1,1.007595062E1,1.007770544E1
1.963105060E0,3.600000218E-2,-1.969500035E-1,1.006395054E1,1.006594187E1
1.965092365E0,3.405000269E-2,-1.939500123E-1,1.006800079E1,1.006992631E1
1.967079444E0,1.905000024E-2,-1.849500090E-1,1.006605053E1,1.006776751E1
1.969066521E0,1.695000008E-2,-1.990500093E-1,1.006800079E1,1.006998253E1
1.971053598E0,2.595000155E-2,-1.920000017E-1,1.005600071E1,1.005786695E1
1.973040750E0,2.895000204E-2,-1.969500035E-1,1.006800079E1,1.006996859E1
1.975028135E0,2.400000021E-2,-2.010000050E-1,1.007805061E1,1.008008339E1
1.977015442E0,2.205000073E-2,-2.010000050E-1,1.006395054E1,1.006598170E1
1.979002827E0,1.200000010E-2,-1.990500093E-1,1.005195045E1,1.005392823E1
1.980990212E0,1.695000008E-2,-2.010000050E-1,1.005195045E1,1.005397415E1
1.982977367E0,3.105000220E-2,-1.969500035E-1,1.006605053E1,1.006802496E1
1.984964750E0,2.205000073E-2,-2.179500163E-1,1.006095028E1,1.006333488E1
1.986952060E0,0.000000000E0,-2.059500068E-1,1.007100010E1,1.007310570E1
1.988939214E0,1.200000010E-2,-2.040000111E-1,1.008300018E1,1.008507078E1
1.990926291E0,2.895000204E-2,-2.160000056E-1,1.007295036E1,1.007530759E1
1.992913368E0,1.905000024E-2,-1.990500093E-1,1.005405045E1,1.005603869E1
1.994900673E0,1.200000010E-2,-1.920000017E-1,1.004700089E1,1.004884246E1
1.996888058E0,1.200000010E-2,-2.089500129E-1,1.005900002E1,1.006117714E1
1.998875442E0,0.000000000E0,-2.089500129E-1,1.007595062E1,1.007811694E1
2.000862827E0,-1.050000079E-3,-2.059500068E-1,1.006605053E1,1.006815722E1
2.002849997E0,2.205000073E-2,-1.990500093E-1,1.004505062E1,1.004704678E1
2.004837303E0,1.695000008E-2,-1.920000017E-1,1.005195045E1,1.005379825E1
2.006824458E0,7.050000131E-3,-1.990500093E-1,1.006395054E1,1.006592127E1
2.008811841E0,1.695000008E-2,-1.939500123E-1,1.006800079E1,1.006988301E1
2.010798843E0,7.050000131E-3,-2.089500129E-1,1.005405045E1,1.005622395E1
2.012785995E0,2.595000155E-2,-1.920000017E-1,1.005900002E1,1.006086570E1
2.014773332E0,1.695000008E-2,-1.849500090E-1,1.004895020E1,1.005066634E1
2.016760716E0,2.595000155E-2,-1.680000126E-1,1.005195045E1,1.005338775E1
2.018748101E0,1.695000008E-2,-1.990500093E-1,1.006800079E1,1.006998253E1
2.020735486E0,3.405000269E-2,-2.059500068E-1,1.007295036E1,1.007511309E1
2.022722641E0,1.695000008E-2,-1.939500123E-1,1.006395054E1,1.006583352E1
2.024709932E0,1.905000024E-2,-1.969500035E-1,1.008495045E1,1.008689138E1
2.026697317E0,1.905000024E-2,-2.010000050E-1,1.006395054E1,1.006597558E1
2.028684473E0,2.595000155E-2,-2.130000144E-1,1.007100010E1,1.007328573E1
2.030671855E0,3.600000218E-2,-2.010000050E-1,1.005900002E1,1.006107242E1
2.032659165E0,3.405000269E-2,-1.969500035E-1,1.005195045E1,1.005393737E1
2.034646624E0,3.795000166E-2,-1.750500053E-1,1.004700089E1,1.004859739E1
2.036633727E0,3.795000166E-2,-1.770000011E-1,1.005900002E1,1.006062873E1
2.038621033E0,4.995000362E-2,-1.920000017E-1,1.004505062E1,1.004700955E1
2.040608112E0,3.600000218E-2,-1.920000017E-1,1.006095028E1,1.006284654E1
2.042595189E0,4.500000179E-2,-1.870500147E-1,1.005405045E1,1.005589096E1
2.044582341E0,4.800000042E-2,-1.939500123E-1,1.005900002E1,1.006098414E1
2.046569725E0,4.800000042E-2,-1.849500090E-1,1.006605053E1,1.006786391E1
2.048557014E0,6.705000252E-2,-1.849500090E-1,1.006800079E1,1.006992265E1
2.050544170E0,4.305000231E-2,-1.750500053E-1,1.005405045E1,1.005566637E1
2.052531247E0,3.795000166E-2,-2.040000111E-1,1.006095028E1,1.006308982E1
2.054518553E0,5.700000376E-2,-1.890000105E-1,1.007100010E1,1.007293468E1
2.056505631E0,6.000000238E-2,-1.990500093E-1,1.006800079E1,1.007014701E1
2.058492783E0,5.505000427E-2,-2.110500038E-1,1.005900002E1,1.006136442E1
2.060479810E0,5.295000225E-2,-2.040000111E-1,1.005900002E1,1.006120773E1
2.062466962E0,5.295000225E-2,-1.849500090E-1,1.005405045E1,1.005589084E1
2.064454041E0,3.795000166E-2,-2.010000050E-1,1.006395054E1,1.006602909E1
2.066441347E0,4.995000362E-2,-2.040000111E-1,1.005405045E1,1.005624390E1
2.068428426E0,4.095000029E-2,-1.939500123E-1,1.005900002E1,1.006095298E1
2.070415508E0,4.800000042E-2,-1.990500093E-1,1.007595062E1,1.007803085E1
2.072402659E0,5.295000225E-2,-2.010000050E-1,1.005600071E1,1.005814869E1
2.074389967E0,4.500000179E-2,-1.990500093E-1,1.006605053E1,1.006811895E1
2.076377046E0,3.405000269E-2,-1.990500093E-1,1.004505062E1,1.004708029E1
2.078364198E0,4.500000179E-2,-1.990500093E-1,1.004505062E1,1.004712336E1
2.080351506E0,2.205000073E-2,-1.870500147E-1,1.006395054E1,1.006571281E1
2.082338585E0,3.600000218E-2,-1.969500035E-1,1.003995037E1,1.004194646E1
2.084325736E0,2.895000204E-2,-2.059500068E-1,1.006095028E1,1.006309962E1
2.086312815E0,3.795000166E-2,-2.040000111E-1,1.008300018E1,1.008513505E1
2.088300121E0,2.400000021E-2,-1.990500093E-1,1.005900002E1,1.006099787E1
2.090287200E0,1.200000010E-2,-2.130000144E-1,1.006605053E1,1.006831099E1
2.092274583E0,1.200000010E-2,-1.969500035E-1,1.006800079E1,1.006993412E1
2.094261723E0,1.950000064E-3,-1.890000105E-1,1.005405045E1,1.005582693E1
2.096249029E0,1.905000024E-2,-1.920000017E-1,1.007595062E1,1.007779777E1
2.098236414E0,4.950000439E-3,-1.849500090E-1,1.005900002E1,1.006070138E1
2.100223570E0,2.205000073E-2,-1.990500093E-1,1.008000088E1,1.008199012E1
2.102210952E0,-4.050000105E-3,-2.040000111E-1,1.005600071E1,1.005807052E1
2.104198568E0,-6.000000052E-3,-1.770000011E-1,1.006800079E1,1.006955833E1
2.106185714E0,7.050000131E-3,-1.770000011E-1,1.005600071E1,1.005756079E1
2.108173020E0,7.050000131E-3,-1.819500029E-1,1.004700089E1,1.004865077E1
2.110160176E0,7.050000131E-3,-2.010000050E-1,1.004505062E1,1.004706388E1
2.112147253E0,1.005000062E-2,-1.870500147E-1,1.006095028E1,1.006269394E1
2.114134559E0,-9.000000544E-3,-1.969500035E-1,1.006395054E1,1.006588152E1
2.116121714E0,1.905000024E-2,-1.729500145E-1,1.007805061E1,1.007955251E1
2.118109010E0,0.000000000E0,-1.890000105E-1,1.007295036E1,1.007472332E1
2.120096089E0,1.905000024E-2,-1.890000105E-1,1.006605053E1,1.006784273E1
2.122083241E0,1.005000062E-2,-1.920000017E-1,1.007100010E1,1.007283515E1
2.124070320E0,2.400000021E-2,-1.849500090E-1,1.007805061E1,1.007977612E1
2.126057397E0,2.595000155E-2,-1.800000072E-1,1.006800079E1,1.006964316E1
2.128044703E0,1.395000052E-2,-1.819500029E-1,1.007100010E1,1.007265325E1
2.130031863E0,1.200000010E-2,-1.939500123E-1,1.004505062E1,1.004693001E1
2.132019169E0,1.695000008E-2,-1.699500084E-1,1.007100010E1,1.007244823E1
2.134006248E0,0.000000000E0,-1.890000105E-1,1.006395054E1,1.006572508E1
2.135993400E0,3.600000218E-2,-1.800000072E-1,1.005900002E1,1.006067479E1
2.137980708E0,2.400000021E-2,-1.849500090E-1,1.007295036E1,1.007467675E1
2.139967863E0,2.595000155E-2,-2.010000050E-1,1.006605053E1,1.006809057E1
2.141955241E0,3.105000220E-2,-1.849500090E-1,1.005900002E1,1.006074808E1
2.143942320E0,3.600000218E-2,-1.770000011E-1,1.006395054E1,1.006557129E1
2.145929626E0,4.305000231E-2,-1.870500147E-1,1.003695011E1,1.003878521E1
2.147916705E0,2.895000204E-2,-2.040000111E-1,1.006605053E1,1.006815909E1
2.149903856E0,2.895000204E-2,-1.890000105E-1,1.006095028E1,1.006276700E1
2.151890858E0,5.295000225E-2,-1.969500035E-1,1.005405045E1,1.005611870E1
2.153878236E0,4.305000231E-2,-2.059500068E-1,1.006395054E1,1.006614967E1
2.155865621E0,3.600000218E-2,-1.920000017E-1,1.004505062E1,1.004694988E1
2.157852777E0,4.305000231E-2,-2.040000111E-1,1.005195045E1,1.005411245E1
2.159839853E0,4.305000231E-2,-2.040000111E-1,1.005900002E1,1.006116050E1
2.161826930E0,4.995000362E-2,-2.089500129E-1,1.006395054E1,1.006624337E1
2.163813930E0,3.795000166E-2,-1.990500093E-1,1.007595062E1,1.007798800E1
2.165801010E0,4.800000042E-2,-2.130000144E-1,1.005900002E1,1.006136941E1
2.167788087E0,4.995000362E-2,-1.920000017E-1,1.006605053E1,1.006800538E1
2.169775164E0,4.800000042E-2,-2.089500129E-1,1.006395054E1,1.006623388E1
2.171762318E0,4.305000231E-2,-1.969500035E-1,1.004700089E1,1.004902331E1
2.173749626E0,5.505000427E-2,-1.870500147E-1,1.007595062E1,1.007783703E1
2.175736705E0,4.500000179E-2,-1.990500093E-1,1.006395054E1,1.006601939E1
2.177724106E0,3.105000220E-2,-2.179500163E-1,1.006395054E1,1.006635817E1
2.179710954E0,2.595000155E-2,-2.230500132E-1,1.005195045E1,1.005445835E1
2.181698260E0,4.500000179E-2,-1.990500093E-1,1.005600071E1,1.005807120E1
2.183685339E0,5.505000427E-2,-2.089500129E-1,1.006095028E1,1.006327040E1
2.185672491E0,3.795000166E-2,-2.040000111E-1,1.006800079E1,1.007013884E1
2.187659799E0,1.695000008E-2,-2.059500068E-1,1.005900002E1,1.006112240E1
2.189647183E0,2.595000155E-2,-2.209500074E-1,1.005405045E1,1.005651146E1
2.191634568E0,1.905000024E-2,-2.010000050E-1,1.007100010E1,1.007302372E1
2.193621724E0,2.205000073E-2,-2.089500129E-1,1.006605053E1,1.006824312E1
2.195609029E0,1.695000008E-2,-1.969500035E-1,1.007805061E1,1.007998913E1
2.197596185E0,1.200000010E-2,-1.920000017E-1,1.006095028E1,1.006278930E1
2.199583491E0,1.950000064E-3,-1.990500093E-1,1.006095028E1,1.006291932E1
2.201570857E0,2.400000021E-2,-2.059500068E-1,1.004700089E1,1.004914017E1
2.203558012E0,1.905000024E-2,-2.059500068E-1,1.007805061E1,1.008017274E1
2.205545395E0,-6.000000052E-3,-2.040000111E-1,1.007805061E1,1.008011687E1
2.207532780E0,1.950000064E-3,-2.059500068E-1,1.008795071E1,1.009005296E1
2.209520395E0,1.905000024E-2,-1.870500147E-1,1.007595062E1,1.007770468E1
2.211507782E0,1.695000008E-2,-1.920000017E-1,1.007100010E1,1.007284440E1
2.213495246E0,4.950000439E-3,-2.110500038E-1,1.005900002E1,1.006121503E1
2.215482633E0,1.200000010E-2,-1.920000017E-1,1.007805061E1,1.007988652E1
2.217470017E0,-6.000000052E-3,-1.890000105E-1,1.007805061E1,1.007982446E1
2.219457631E0,1.005000062E-2,-1.890000105E-1,1.004895020E1,1.005073241E1
2.221445017E0,1.200000010E-2,-1.990500093E-1,1.006095028E1,1.006292629E1
2.223432151E0,2.400000021E-2,-1.920000017E-1,1.006395054E1,1.006581047E1
2.225643226E0,0.000000000E0,-1.849500090E-1,1.005405045E1,1.005575143E1
2.227406844E0,4.950000439E-3,-1.890000105E-1,1.006395054E1,1.006572630E1
2.229394226E0,2.895000204E-2,-1.969500035E-1,1.007295036E1,1.007491719E1
2.231381611E0,1.395000052E-2,-1.969500035E-1,1.007595062E1,1.007788494E1
2.233368995E0,1.695000008E-2,-2.040000111E-1,1.005600071E1,1.005808399E1
2.235356149E0,4.095000029E-2,-1.920000017E-1,1.006095028E1,1.006286547E1
2.237343457E0,2.895000204E-2,-1.870500147E-1,1.006605053E1,1.006782991E1
2.239330611E0,2.400000021E-2,-1.849500090E-1,1.007100010E1,1.007272682E1
2.241317995E0,2.895000204E-2,-2.089500129E-1,1.006395054E1,1.006616107E1
2.243305380E0,1.005000062E-2,-2.010000050E-1,1.005600071E1,1.005801433E1
2.245292690E0,4.095000029E-2,-2.040000111E-1,1.004205036E1,1.004420571E1
2.247279844E0,4.305000231E-2,-1.870500147E-1,1.005900002E1,1.006083109E1
2.249267226E0,3.795000166E-2,-1.969500035E-1,1.008300018E1,1.008499490E1
2.251254842E0,5.505000427E-2,-1.969500035E-1,1.006800079E1,1.007007745E1
2.253241998E0,2.595000155E-2,-2.059500068E-1,1.007805061E1,1.008018814E1
2.255229380E0,4.995000362E-2,-2.089500129E-1,1.006800079E1,1.007029270E1
2.257216690E0,6.195000187E-2,-1.990500093E-1,1.006095028E1,1.006310982E1
2.259203844E0,5.295000225E-2,-1.939500123E-1,1.005900002E1,1.006100898E1
2.261191222E0,4.500000179E-2,-1.819500029E-1,1.006395054E1,1.006569577E1
2.263178607E0,3.600000218E-2,-1.890000105E-1,1.004895020E1,1.005079186E1
2.265165917E0,4.995000362E-2,-1.990500093E-1,1.004505062E1,1.004714675E1
2.267153070E0,6.000000238E-2,-2.089500129E-1,1.007100010E1,1.007334617E1
2.269140453E0,6.195000187E-2,-2.010000050E-1,1.007595062E1,1.007814565E1
2.271128145E0,6.000000238E-2,-2.110500038E-1,1.008495045E1,1.008733699E1
2.273115532E0,5.700000376E-2,-1.990500093E-1,1.005600071E1,1.005813204E1
2.275102840E0,6.495000422E-2,-1.990500093E-1,1.005195045E1,1.005413086E1
2.277090222E0,7.395000011E-2,-2.059500068E-1,1.007295036E1,1.007532694E1
2.279077607E0,4.995000362E-2,-1.920000017E-1,1.004895020E1,1.005090837E1
2.281064992E0,6.900000572E-2,-1.969500035E-1,1.005405045E1,1.005621602E1
2.283052376E0,6.195000187E-2,-2.010000050E-1,1.007595062E1,1.007814565E1
2.285039794E0,5.505000427E-2,-2.130000144E-1,1.006395054E1,1.006635485E1
2.287027179E0,5.505000427E-2,-2.059500068E-1,1.005600071E1,1.005826010E1
2.289014564E0,4.500000179E-2,-1.849500090E-1,1.005600071E1,1.005780204E1
2.291001719E0,4.305000231E-2,-1.870500147E-1,1.008300018E1,1.008482690E1
2.292989102E0,6.195000187E-2,-1.990500093E-1,1.007295036E1,1.007510733E1
2.294976486E0,3.405000269E-2,-2.040000111E-1,1.008300018E1,1.008512112E1
2.296963806E0,5.700000376E-2,-2.040000111E-1,1.006800079E1,1.007022865E1
2.298951188E0,1.395000052E-2,-2.130000144E-1,1.004700089E1,1.004926815E1
2.300938344E0,2.400000021E-2,-1.849500090E-1,1.005405045E1,1.005578007E1
2.302925727E0,3.600000218E-2,-1.939500123E-1,1.007595062E1,1.007788140E1
2.304913112E0,2.595000155E-2,-1.939500123E-1,1.009005070E1,1.009194793E1
2.306900421E0,4.950000439E-3,-2.010000050E-1,1.007100010E1,1.007300692E1
2.308887828E0,1.200000010E-2,-2.110500038E-1,1.004205036E1,1.004427506E1
2.310875213E0,2.400000021E-2,-1.990500093E-1,1.005195045E1,1.005394971E1
2.312862368E0,1.695000008E-2,-2.010000050E-1,1.006395054E1,1.006597182E1
2.314849751E0,1.005000062E-2,-1.920000017E-1,1.005405045E1,1.005588859E1
2.316837061E0,1.950000064E-3,-2.089500129E-1,1.005900002E1,1.006117017E1
2.318824520E0,-6.000000052E-3,-1.990500093E-1,1.007805061E1,1.008001791E1
2.320811830E0,-9.000000544E-3,-1.969500035E-1,1.008495045E1,1.008687741E1
2.322799213E0,1.905000024E-2,-1.990500093E-1,1.008000088E1,1.008198401E1
2.324786368E0,-4.050000105E-3,-1.920000017E-1,1.004895020E1,1.005078507E1
2.326773674E0,-2.100000158E-2,-1.939500123E-1,1.005600071E1,1.005789281E1
2.328761059E0,-4.050000105E-3,-1.849500090E-1,1.004505062E1,1.004675395E1
2.330748138E0,-1.050000079E-3,-1.969500035E-1,1.007100010E1,1.007292576E1
2.332735539E0,1.005000062E-2,-1.800000072E-1,1.007805061E1,1.007966295E1
2.334722924E0,0.000000000E0,-1.890000105E-1,1.007100010E1,1.007277340E1
2.336710080E0,7.050000131E-3,-2.110500038E-1,1.006800079E1,1.007021508E1
2.338697157E0,-9.000000544E-3,-1.939500123E-1,1.007100010E1,1.007287152E1
2.340684462E0,1.950000064E-3,-1.819500029E-1,1.005900002E1,1.006064565E1
2.342671847E0,-4.050000105E-3,-1.699500084E-1,1.005405045E1,1.005548755E1
2.344658979E0,1.950000064E-3,-1.920000017E-1,1.005195045E1,1.005378415E1
2.346646592E0,2.205000073E-2,-1.890000105E-1,1.005195045E1,1.005375130E1
2.348633979E0,1.950000064E-3,-1.990500093E-1,1.008495045E1,1.008691480E1
2.350621363E0,2.205000073E-2,-1.890000105E-1,1.008300018E1,1.008479548E1
2.352608748E0,1.200000010E-2,-1.800000072E-1,1.005195045E1,1.005356911E1
2.354596133E0,1.200000010E-2,-1.750500053E-1,1.006095028E1,1.006248016E1
2.356583272E0,1.950000064E-3,-1.630500108E-1,1.007805061E1,1.007936969E1
2.358570654E0,2.400000021E-2,-1.579500139E-1,1.008000088E1,1.008126688E1
2.360558039E0,1.200000010E-2,-1.609500051E-1,1.008000088E1,1.008129290E1
2.362545731E0,0.000000000E0,-1.800000072E-1,1.009005070E1,1.009165611E1
2.364533041E0,1.905000024E-2,-1.540500075E-1,1.006395054E1,1.006514753E1
2.366520118E0,2.595000155E-2,-1.609500051E-1,1.005600071E1,1.005732214E1
2.368507272E0,2.205000073E-2,-1.560000032E-1,1.004700089E1,1.004823611E1
2.370494348E0,3.795000166E-2,-1.489500105E-1,9.994050026E0,9.995231975E0
2.372481654E0,2.895000204E-2,-1.750500053E-1,1.000605011E1,1.000762306E1
2.374468810E0,4.800000042E-2,-1.890000105E-1,1.006395054E1,1.006583953E1
2.376456116E0,5.295000225E-2,-1.890000105E-1,1.014495087E1,1.014684940E1
2.378443500E0,5.505000427E-2,-2.130000144E-1,1.017600060E1,1.017837844E1
2.380430885E0,4.305000231E-2,-2.280000150E-1,1.010700035E1,1.010966337E1
2.382418270E0,6.495000422E-2,-2.209500074E-1,1.002795029E1,1.003059442E1
2.384405654E0,6.705000252E-2,-1.819500029E-1,1.002300072E1,1.002487630E1
2.386392810E0,7.395000011E-2,-1.660500020E-1,1.001805019E1,1.001969914E1
2.388380193E0,6.705000252E-2,-1.680000126E-1,1.004205036E1,1.004367936E1
2.390367577E0,4.800000042E-2,-2.010000050E-1,1.007295036E1,1.007506993E1
2.392355174E0,4.995000362E-2,-2.400000095E-1,1.008000088E1,1.008298134E1
2.394342560E0,9.795000404E-2,-2.419500053E-1,1.009995079E1,1.010332321E1
2.396329714E0,8.595000207E-2,-2.370000184E-1,1.011600018E1,1.011914107E1
2.398317097E0,7.395000011E-2,-2.209500074E-1,1.009005070E1,1.009274049E1
2.400304406E0,5.700000376E-2,-2.089500129E-1,1.002300072E1,1.002534052E1
2.402291560E0,4.305000231E-2,-2.209500074E-1,9.999000549E0,1.000153409E1
2.404278881E0,6.000000238E-2,-2.040000111E-1,1.002495003E1,1.002720495E1
2.406266343E0,8.595000207E-2,-2.130000144E-1,1.004700089E1,1.004962602E1
2.408253729E0,7.695000619E-2,-2.280000150E-1,1.005600071E1,1.005887944E1
2.410241114E0,5.295000225E-2,-2.350500077E-1,1.009005070E1,1.009292699E1
2.412228498E0,5.295000225E-2,-2.659500241E-1,1.009005070E1,1.009369388E1
2.414216112E0,3.795000166E-2,-2.299500108E-1,1.006800079E1,1.007069795E1
2.416203497E0,5.700000376E-2,-2.280000150E-1,1.006095028E1,1.006369482E1
2.418190651E0,4.800000042E-2,-2.130000144E-1,1.005600071E1,1.005837081E1
2.420178034E0,2.400000021E-2,-2.209500074E-1,1.005600071E1,1.005845640E1
2.422165649E0,2.895000204E-2,-2.179500163E-1,1.006605053E1,1.006845140E1
2.424153036E0,1.005000062E-2,-2.179500163E-1,1.007100010E1,1.007336320E1
2.426140200E0,1.950000064E-3,-2.230500132E-1,1.006095028E1,1.006342266E1
2.428127582E0,1.005000062E-2,-2.130000144E-1,1.007295036E1,1.007520715E1
2.430114967E0,7.050000131E-3,-2.250000089E-1,1.005195045E1,1.005447078E1
2.432102277E0,-6.000000052E-3,-2.179500163E-1,1.004505062E1,1.004741659E1
2.434089354E0,-2.100000158E-2,-1.990500093E-1,1.005600071E1,1.005799245E1
2.436076736E0,-2.295000106E-2,-1.990500093E-1,1.004700089E1,1.004899868E1
2.438064116E0,-1.605000161E-2,-1.870500147E-1,1.005195045E1,1.005370346E1
2.440051501E0,-9.000000544E-3,-1.800000072E-1,1.007295036E1,1.007456252E1
2.442038656E0,-2.100000158E-2,-1.770000011E-1,1.008795071E1,1.008952523E1
2.444025962E0,-1.800000109E-2,-1.870500147E-1,1.010205078E1,1.010379838E1
2.446013118E0,-3.000000119E-2,-1.770000011E-1,1.007295036E1,1.007455002E1
2.448000424E0,-2.295000106E-2,-1.660500020E-1,1.004895020E1,1.005034822E1
2.449987593E0,-2.805000171E-2,-1.699500084E-1,1.004700089E1,1.004847733E1
2.451974976E0,-3.299999982E-2,-1.609500051E-1,1.002495003E1,1.002629627E1
2.453962361E0,-3.000000119E-2,-1.579500139E-1,1.003695011E1,1.003823768E1
2.455949745E0,-1.800000109E-2,-1.699500084E-1,1.007295036E1,1.007440003E1
2.457937130E0,-2.505000122E-2,-1.729500145E-1,1.007295036E1,1.007446615E1
2.459924515E0,-1.305000018E-2,-1.770000011E-1,1.009005070E1,1.009161149E1
2.461911844E0,1.005000062E-2,-1.939500123E-1,1.006800079E1,1.006987376E1
2.463899227E0,-2.100000158E-2,-1.579500139E-1,1.008495045E1,1.008620914E1
2.465886383E0,1.005000062E-2,-1.510500014E-1,1.005900002E1,1.006013909E1
2.467873765E0,-6.000000052E-3,-1.579500139E-1,1.007100010E1,1.007224043E1
2.469861075E0,-1.095000096E-2,-1.319999993E-1,1.006395054E1,1.006482212E1
2.471848458E0,-9.000000544E-3,-1.300500035E-1,1.003305054E1,1.003389740E1
2.473835517E0,7.050000131E-3,-1.489500105E-1,1.001595020E1,1.001706016E1
2.475822899E0,4.500000179E-2,-1.459500045E-1,1.004205036E1,1.004321173E1
2.477810055E0,1.395000052E-2,-1.630500108E-1,1.006095028E1,1.006228107E1
2.479797132E0,1.905000024E-2,-1.680000126E-1,1.009695053E1,1.009836605E1
2.481784438E0,4.995000362E-2,-1.770000011E-1,1.010895061E1,1.011062345E1
2.483771594E0,4.305000231E-2,-1.920000017E-1,1.010700035E1,1.010891554E1
2.485758904E0,7.395000011E-2,-1.750500053E-1,1.007295036E1,1.007474268E1
2.487746289E0,7.695000619E-2,-1.660500020E-1,1.005195045E1,1.005361636E1
2.489733445E0,6.195000187E-2,-1.660500020E-1,1.003005028E1,1.003161597E1
2.491720750E0,7.695000619E-2,-1.819500029E-1,1.001595020E1,1.001789826E1
2.493707906E0,7.200000435E-2,-1.819500029E-1,1.001805019E1,1.001996105E1
2.495694983E0,1.080000028E-1,-1.990500093E-1,1.006395054E1,1.006649817E1
2.497682371E0,1.050000042E-1,-2.130000144E-1,1.010205078E1,1.010484161E1
2.499669755E0,9.300000221E-2,-2.449500114E-1,1.010895061E1,1.011234553E1
2.501657065E0,1.009500027E-1,-2.280000150E-1,1.008495045E1,1.008803254E1
2.503644142E0,1.050000042E-1,-2.130000144E-1,1.005195045E1,1.005475519E1
2.505631525E0,1.170000061E-1,-2.110500038E-1,1.004505062E1,1.004794870E1
2.507618681E0,1.200000048E-1,-2.130000144E-1,1.006095028E1,1.006392019E1
2.509605752E0,8.595000207E-2,-2.110500038E-1,1.004895020E1,1.005153369E1
2.511593058E0,1.080000028E-1,-2.179500163E-1,1.003695011E1,1.003989710E1
2.513580137E0,9.300000221E-2,-2.160000056E-1,1.003695011E1,1.003970480E1
2.515567520E0,9.105000645E-2,-2.209500074E-1,1.006605053E1,1.006888684E1
2.517554676E0,1.030500084E-1,-2.130000144E-1,1.009995079E1,1.010272212E1
2.519541981E0,9.300000221E-2,-2.230500132E-1,1.009005070E1,1.009294424E1
2.521529137E0,7.695000619E-2,-2.230500132E-1,1.004895020E1,1.005171988E1
2.523516443E0,6.900000572E-2,-2.179500163E-1,1.004505062E1,1.004765173E1
2.525503599E0,6.000000238E-2,-2.059500068E-1,1.008300018E1,1.008528176E1
2.527490904E0,5.295000225E-2,-1.939500123E-1,1.008795071E1,1.008995390E1
2.529478060E0,3.405000269E-2,-1.770000011E-1,1.008300018E1,1.008461110E1
2.531465443E0,2.595000155E-2,-1.750500053E-1,1.005900002E1,1.006055651E1
2.533452766E0,2.205000073E-2,-1.990500093E-1,1.004895020E1,1.005094558E1
2.535440149E0,-1.050000079E-3,-1.660500020E-1,1.006605053E1,1.006742008E1
2.537427305E0,1.905000024E-2,-1.609500051E-1,1.006605053E1,1.006735522E1
2.539414611E0,1.005000062E-2,-1.750500053E-1,1.005900002E1,1.006052806E1
2.541401690E0,0.000000000E0,-1.849500090E-1,1.006800079E1,1.006969942E1
2.543388843E0,-1.305000018E-2,-1.750500053E-1,1.008495045E1,1.008647799E1
2.545376145E0,-1.095000096E-2,-1.819500029E-1,1.008000088E1,1.008164884E1
2.547363607E0,-2.295000106E-2,-1.579500139E-1,1.007295036E1,1.007421480E1
2.549350916E0,-2.505000122E-2,-1.729500145E-1,1.007295036E1,1.007446615E1
2.551338070E0,-3.299999982E-2,-1.609500051E-1,1.010205078E1,1.010338675E1
2.553325453E0,-2.805000171E-2,-1.579500139E-1,1.006095028E1,1.006222915E1
2.555312837E0,-3.495000303E-2,-1.609500051E-1,1.003695011E1,1.003830135E1
2.557300443E0,-4.005000368E-2,-1.609500051E-1,1.003305054E1,1.003442136E1
2.559287599E0,-1.605000161E-2,-1.579500139E-1,1.005600071E1,1.005725390E1
2.561274981E0,-2.295000106E-2,-1.579500139E-1,1.008300018E1,1.008426336E1
2.563262366E0,-1.095000096E-2,-1.660500020E-1,1.009500027E1,1.009637177E1
2.565249751E0,-3.299999982E-2,-2.110500038E-1,1.008000088E1,1.008226407E1
2.567237135E0,-2.295000106E-2,-1.939500123E-1,1.009005070E1,1.009194066E1
2.569224510E0,-9.000000544E-3,-1.750500053E-1,1.007805061E1,1.007957478E1
2.571211820E0,1.905000024E-2,-1.680000126E-1,1.004895020E1,1.005037248E1
2.573199202E0,-1.305000018E-2,-1.510500014E-1,1.005405045E1,1.005519352E1
2.575186358E0,4.950000439E-3,-1.680000126E-1,1.004505062E1,1.004645661E1
2.577173741E0,-1.800000109E-2,-2.010000050E-1,1.004700089E1,1.004902740E1
2.579161125E0,1.905000024E-2,-2.040000111E-1,1.006800079E1,1.007008535E1
2.581148761E0,2.205000073E-2,-2.059500068E-1,1.007100010E1,1.007312983E1
2.583136147E0,3.795000166E-2,-2.160000056E-1,1.009500027E1,1.009738217E1
2.585123532E0,1.695000008E-2,-2.089500129E-1,1.008795071E1,1.009012868E1
2.587110916E0,1.905000024E-2,-2.089500129E-1,1.005900002E1,1.006118802E1
2.589098376E0,3.405000269E-2,-2.160000056E-1,1.005195045E1,1.005432859E1
2.591085686E0,3.795000166E-2,-1.890000105E-1,1.004205036E1,1.004390047E1
2.593073130E0,5.505000427E-2,-1.969500035E-1,1.004700089E1,1.004908188E1
2.595060746E0,4.500000179E-2,-2.059500068E-1,1.006395054E1,1.006615820E1
2.597048132E0,4.095000029E-2,-2.059500068E-1,1.007100010E1,1.007318893E1
2.599035517E0,4.800000042E-2,-2.280000150E-1,1.007295036E1,1.007564474E1
2.601022902E0,6.495000422E-2,-2.329500169E-1,1.006605053E1,1.006895513E1
2.603010286E0,6.495000422E-2,-2.280000150E-1,1.005900002E1,1.006179327E1
2.604997671E0,6.705000252E-2,-2.209500074E-1,1.004895020E1,1.005160259E1
2.606985055E0,6.195000187E-2,-2.110500038E-1,1.005900002E1,1.006140453E1
2.608972440E0,5.295000225E-2,-2.250000089E-1,1.005195045E1,1.005460773E1
2.610959825E0,4.500000179E-2,-2.280000150E-1,1.005405045E1,1.005673602E1
2.612947284E0,6.495000422E-2,-2.209500074E-1,1.006605053E1,1.006868465E1
2.614934594E0,7.905000448E-2,-2.110500038E-1,1.006800079E1,1.007052288E1
2.616921981E0,5.295000225E-2,-2.110500038E-1,1.005195045E1,1.005430523E1
2.618909137E0,4.500000179E-2,-2.329500169E-1,1.005405045E1,1.005684946E1
2.620896520E0,4.995000362E-2,-2.179500163E-1,1.007295036E1,1.007543181E1
2.622883830E0,6.195000187E-2,-2.130000144E-1,1.004895020E1,1.005139825E1
2.624871289E0,4.500000179E-2,-2.370000184E-1,1.005405045E1,1.005694409E1
2.626858604E0,6.195000187E-2,-2.299500108E-1,1.003500080E1,1.003782625E1
2.628845758E0,5.505000427E-2,-2.179500163E-1,1.004205036E1,1.004456610E1
2.630833140E0,4.305000231E-2,-2.110500038E-1,1.007100010E1,1.007330325E1
2.632820756E0,4.095000029E-2,-2.089500129E-1,1.008495045E1,1.008719795E1
2.634808142E0,2.895000204E-2,-1.920000017E-1,1.008495045E1,1.008681950E1
2.636795527E0,3.600000218E-2,-2.130000144E-1,1.006395054E1,1.006626870E1
2.638782897E0,3.600000218E-2,-2.130000144E-1,1.006605053E1,1.006836820E1
2.640770281E0,1.905000024E-2,-1.969500035E-1,1.004505062E1,1.004699926E1
2.642757666E0,2.205000073E-2,-1.939500123E-1,1.004895020E1,1.005084588E1
2.644745125E0,1.200000010E-2,-2.209500074E-1,1.006800079E1,1.007043211E1
2.646732512E0,1.200000010E-2,-2.209500074E-1,1.007295036E1,1.007538049E1
2.648719820E0,7.050000131E-3,-2.160000056E-1,1.005405045E1,1.005637291E1
2.650706936E0,1.005000062E-2,-2.089500129E-1,1.007100010E1,1.007317249E1
2.652694549E0,1.695000008E-2,-2.160000056E-1,1.006605053E1,1.006838202E1
2.654681936E0,0.000000000E0,-2.040000111E-1,1.007595062E1,1.007801553E1
2.656669320E0,-1.050000079E-3,-1.969500035E-1,1.006395054E1,1.006587755E1
2.658656780E0,-1.095000096E-2,-1.920000017E-1,1.005900002E1,1.006083820E1
2.660644395E0,1.395000052E-2,-1.969500035E-1,1.007295036E1,1.007488526E1
2.662631767E0,-9.000000544E-3,-1.849500090E-1,1.005405045E1,1.005575546E1
2.664619226E0,-1.800000109E-2,-1.939500123E-1,1.005600071E1,1.005788700E1
2.666606842E0,-2.100000158E-2,-2.089500129E-1,1.007100010E1,1.007318937E1
2.668594305E0,-1.800000109E-2,-1.890000105E-1,1.004895020E1,1.005074351E1
2.670581919E0,-1.800000109E-2,-1.819500029E-1,1.006395054E1,1.006561127E1
2.672569382E0,-1.050000079E-3,-1.870500147E-1,1.007805061E1,1.007978636E1
2.674556767E0,-1.305000018E-2,-1.800000072E-1,1.006395054E1,1.006556858E1
2.676544457E0,0.000000000E0,-1.729500145E-1,1.005600071E1,1.005748786E1
2.678532072E0,1.950000064E-3,-1.750500053E-1,1.006800079E1,1.006952264E1
2.680519842E0,-2.100000158E-2,-1.870500147E-1,1.005195045E1,1.005371258E1
2.682507459E0,3.105000220E-2,-1.750500053E-1,1.006095028E1,1.006252091E1
2.684494921E0,1.005000062E-2,-1.729500145E-1,1.006800079E1,1.006949118E1
2.686482529E0,-4.050000105E-3,-1.890000105E-1,1.007295036E1,1.007472414E1
2.688469993E0,-1.050000079E-3,-1.680000126E-1,1.008300018E1,1.008439972E1
2.690457377E0,1.950000064E-3,-1.819500029E-1,1.006095028E1,1.006259560E1
2.692445067E0,1.695000008E-2,-1.770000011E-1,1.005405045E1,1.005562264E1
2.694432454E0,1.905000024E-2,-1.699500084E-1,1.006605053E1,1.006750312E1
2.696420067E0,1.200000010E-2,-1.540500075E-1,1.006395054E1,1.006513665E1
2.698407546E0,2.895000204E-2,-1.750500053E-1,1.007100010E1,1.007256291E1
2.700394854E0,2.595000155E-2,-1.680000126E-1,1.006095028E1,1.006238629E1
2.702382236E0,2.400000021E-2,-1.729500145E-1,1.006800079E1,1.006951477E1
2.704369698E0,4.800000042E-2,-1.770000011E-1,1.005405045E1,1.005572292E1
2.706357313E0,4.500000179E-2,-1.870500147E-1,1.006800079E1,1.006983876E1
2.708344700E0,5.295000225E-2,-1.890000105E-1,1.009695053E1,1.009885809E1
2.710332144E0,4.800000042E-2,-2.040000111E-1,1.007100010E1,1.007318038E1
2.712319760E0,6.195000187E-2,-1.920000017E-1,1.007100010E1,1.007302064E1
2.714307223E0,6.000000238E-2,-1.819500029E-1,1.005195045E1,1.005377609E1
2.716294837E0,7.695000619E-2,-1.849500090E-1,1.005900002E1,1.006099444E1
2.718282223E0,8.895000070E-2,-1.939500123E-1,1.006605053E1,1.006831177E1
2.720269608E0,8.400000632E-2,-2.059500068E-1,1.007295036E1,1.007540572E1
2.722257003E0,7.905000448E-2,-1.969500035E-1,1.007100010E1,1.007323589E1
2.724244387E0,9.795000404E-2,-2.089500129E-1,1.005600071E1,1.005864825E1
2.726231847E0,9.300000221E-2,-2.059500068E-1,1.008495045E1,1.008748184E1
2.728219233E0,1.080000028E-1,-2.089500129E-1,1.007100010E1,1.007374643E1
2.730206618E0,8.100000024E-2,-2.130000144E-1,1.007295036E1,1.007552773E1
2.732194003E0,9.600000083E-2,-2.089500129E-1,1.005900002E1,1.006162797E1
2.734181401E0,9.795000404E-2,-2.110500038E-1,1.005900002E1,1.006169059E1
2.736168786E0,1.009500027E-1,-2.329500169E-1,1.006395054E1,1.006715238E1
2.738156476E0,1.050000042E-1,-2.209500074E-1,1.006800079E1,1.007097234E1
2.740143786E0,7.905000448E-2,-2.280000150E-1,1.007295036E1,1.007584051E1
2.742131171E0,8.895000070E-2,-2.230500132E-1,1.007595062E1,1.007881165E1
2.744118630E0,7.695000619E-2,-2.209500074E-1,1.008300018E1,1.008571430E1
2.746106027E0,8.400000632E-2,-2.130000144E-1,1.006605053E1,1.006865424E1
2.748093411E0,7.395000011E-2,-2.059500068E-1,1.006605053E1,1.006842874E1
2.750080796E0,6.705000252E-2,-2.179500163E-1,1.008795071E1,1.009052761E1
2.752068181E0,5.505000427E-2,-2.250000089E-1,1.007295036E1,1.007561336E1
2.754055565E0,4.305000231E-2,-2.160000056E-1,1.005195045E1,1.005436310E1
2.756042950E0,3.405000269E-2,-1.939500123E-1,1.008300018E1,1.008492284E1
2.758030343E0,3.405000269E-2,-1.969500035E-1,1.007295036E1,1.007493314E1
2.760017727E0,3.405000269E-2,-1.939500123E-1,1.004895020E1,1.005087937E1
2.762005036E0,3.105000220E-2,-1.990500093E-1,1.005900002E1,1.006101716E1
2.763992418E0,2.595000155E-2,-2.059500068E-1,1.007100010E1,1.007313912E1
2.765979803E0,7.050000131E-3,-1.849500090E-1,1.005600071E1,1.005770384E1
2.767967188E0,1.950000064E-3,-1.800000072E-1,1.007295036E1,1.007455869E1
2.769954568E0,-9.000000544E-3,-1.699500084E-1,1.006095028E1,1.006238960E1
2.771941953E0,-1.305000018E-2,-1.800000072E-1,1.006395054E1,1.006556858E1
2.773929337E0,-6.000000052E-3,-1.750500053E-1,1.007805061E1,1.007957254E1
2.775916799E0,-3.000000119E-2,-1.680000126E-1,1.008000088E1,1.008144542E1
2.777904109E0,-2.505000122E-2,-1.680000126E-1,1.008495045E1,1.008638077E1
2.779891568E0,-2.805000171E-2,-1.699500084E-1,1.007100010E1,1.007247302E1
2.781878887E0,-2.505000122E-2,-1.770000011E-1,1.005405045E1,1.005563956E1
2.783866270E0,-2.505000122E-2,-1.680000126E-1,1.005900002E1,1.006043403E1
2.785853654E0,-5.400000140E-2,-1.579500139E-1,1.006605053E1,1.006743450E1
2.787841039E0,-4.005000368E-2,-1.390500069E-1,1.006800079E1,1.006904061E1
2.789828423E0,-3.299999982E-2,-1.489500105E-1,1.007595062E1,1.007710554E1
2.791815885E0,-5.595000088E-2,-1.680000126E-1,1.005195045E1,1.005350995E1
2.793803272E0,-2.100000158E-2,-1.579500139E-1,1.006395054E1,1.006521185E1
2.795790656E0,-3.495000303E-2,-1.609500051E-1,1.007595062E1,1.007729663E1
2.797778041E0,-1.605000161E-2,-1.660500020E-1,1.007595062E1,1.007733155E1
2.799765425E0,-3.000000119E-2,-1.630500108E-1,1.005600071E1,1.005736723E1
2.801753039E0,-2.805000171E-2,-1.699500084E-1,1.005900002E1,1.006047470E1
2.803740502E0,-1.050000079E-3,-1.729500145E-1,1.006395054E1,1.006543657E1
2.805727810E0,-2.100000158E-2,-1.990500093E-1,1.006605053E1,1.006804028E1
2.807714964E0,1.395000052E-2,-1.770000011E-1,1.006395054E1,1.006551658E1
2.809702270E0,7.050000131E-3,-1.770000011E-1,1.006395054E1,1.006550938E1
2.811689654E0,1.905000024E-2,-1.990500093E-1,1.007295036E1,1.007493488E1
2.813676810E0,1.200000010E-2,-2.040000111E-1,1.007805061E1,1.008012223E1
2.815664193E0,4.095000029E-2,-2.040000111E-1,1.005600071E1,1.005815307E1
2.817651492E0,4.500000179E-2,-2.040000111E-1,1.005600071E1,1.005817037E1
2.819638875E0,2.595000155E-2,-2.040000111E-1,1.006800079E1,1.007010076E1
2.821626337E0,4.800000042E-2,-2.059500068E-1,1.007595062E1,1.007816949E1
2.823613646E0,5.505000427E-2,-2.089500129E-1,1.006800079E1,1.007031929E1
2.825601029E0,5.700000376E-2,-2.089500129E-1,1.006800079E1,1.007033014E1
2.827588418E0,5.700000376E-2,-2.110500038E-1,1.005600071E1,1.005837668E1
2.829575879E0,6.195000187E-2,-2.299500108E-1,1.007100010E1,1.007381545E1
2.831563266E0,7.695000619E-2,-2.329500169E-1,1.005600071E1,1.005899286E1
2.833550573E0,7.200000435E-2,-2.179500163E-1,1.004700089E1,1.004962253E1
2.835537727E0,7.200000435E-2,-2.329500169E-1,1.005600071E1,1.005895621E1
2.837525033E0,8.100000024E-2,-2.299500108E-1,1.005600071E1,1.005895563E1
2.839512452E0,8.400000632E-2,-2.209500074E-1,1.004505062E1,1.004783145E1
2.841499836E0,9.300000221E-2,-2.250000089E-1,1.006095028E1,1.006389559E1
2.843487221E0,8.400000632E-2,-2.250000089E-1,1.006800079E1,1.007086496E1
2.845474605E0,6.705000252E-2,-2.449500114E-1,1.006800079E1,1.007120331E1
2.847462067E0,7.905000448E-2,-2.329500169E-1,1.006605053E1,1.006905596E1
2.849449454E0,8.100000024E-2,-2.160000056E-1,1.007595062E1,1.007859107E1
2.851437081E0,6.900000572E-2,-2.299500108E-1,1.008000088E1,1.008285950E1
2.853424468E0,6.195000187E-2,-2.089500129E-1,1.006605053E1,1.006840957E1
2.855411621E0,5.295000225E-2,-2.110500038E-1,1.006605053E1,1.006840201E1
2.857398927E0,4.305000231E-2,-2.160000056E-1,1.006095028E1,1.006336076E1
2.859386312E0,5.505000427E-2,-2.110500038E-1,1.005600071E1,1.005836582E1
2.861373696E0,4.995000362E-2,-1.969500035E-1,1.003695011E1,1.003900652E1
2.863361067E0,3.795000166E-2,-1.920000017E-1,1.006095028E1,1.006285371E1
2.865348223E0,1.695000008E-2,-2.010000050E-1,1.007295036E1,1.007496984E1
2.867335605E0,2.595000155E-2,-1.990500093E-1,1.007805061E1,1.008004953E1
2.869322990E0,7.050000131E-3,-1.920000017E-1,1.008495045E1,1.008678042E1
2.871310300E0,7.050000131E-3,-1.870500147E-1,1.007595062E1,1.007768914E1
2.873297454E0,0.000000000E0,-1.870500147E-1,1.007595062E1,1.007768667E1
2.875284536E0,0.000000000E0,-1.819500029E-1,1.008495045E1,1.008659166E1
2.877271918E0,0.000000000E0,-1.729500145E-1,1.008000088E1,1.008148448E1
2.879259226E0,1.950000064E-3,-1.770000011E-1,1.005600071E1,1.005755850E1
2.881246382E0,-9.000000544E-3,-1.819500029E-1,1.005900002E1,1.006064949E1
2.883233687E0,4.950000439E-3,-1.800000072E-1,1.007100010E1,1.007260977E1
2.885220766E0,1.950000064E-3,-1.770000011E-1,1.007595062E1,1.007750533E1
2.887207874E0,-9.000000544E-3,-1.750500053E-1,1.006095028E1,1.006247703E1
2.889195182E0,-1.305000018E-2,-1.800000072E-1,1.006605053E1,1.006766823E1
2.891182567E0,-6.000000052E-3,-1.660500020E-1,1.005900002E1,1.006037226E1
2.893170028E0,-1.050000079E-3,-1.729500145E-1,1.006605053E1,1.006753625E1
2.895157338E0,-1.095000096E-2,-1.630500108E-1,1.005900002E1,1.006032736E1
2.897144720E0,-6.000000052E-3,-1.609500051E-1,1.005195045E1,1.005324071E1
2.899132120E0,-1.095000096E-2,-1.819500029E-1,1.003995037E1,1.004160491E1
2.901119505E0,-1.050000079E-3,-1.870500147E-1,1.007595062E1,1.007768673E1
2.903106660E0,1.950000064E-3,-1.819500029E-1,1.006800079E1,1.006964496E1
2.905094043E0,1.905000024E-2,-1.819500029E-1,1.006395054E1,1.006561320E1
2.907081353E0,1.200000010E-2,-1.920000017E-1,1.008300018E1,1.008483518E1
2.909068735E0,2.205000073E-2,-1.890000105E-1,1.006095028E1,1.006274951E1
2.911056125E0,3.405000269E-2,-1.920000017E-1,1.006800079E1,1.006988895E1
2.913043587E0,2.205000073E-2,-1.800000072E-1,1.005600071E1,1.005763573E1
2.915030896E0,3.405000269E-2,-1.939500123E-1,1.005600071E1,1.005792853E1
2.917018050E0,4.500000179E-2,-1.920000017E-1,1.005900002E1,1.006093287E1
2.919005433E0,3.600000218E-2,-1.939500123E-1,1.006095028E1,1.006288394E1
2.920992817E0,3.105000220E-2,-1.870500147E-1,1.007100010E1,1.007278486E1
2.922980131E0,5.505000427E-2,-2.110500038E-1,1.005900002E1,1.006136442E1
2.924967208E0,6.900000572E-2,-2.040000111E-1,1.004205036E1,1.004435924E1
2.926954285E0,6.900000572E-2,-2.160000056E-1,1.007100010E1,1.007355250E1
2.928941437E0,5.295000225E-2,-2.089500129E-1,1.006395054E1,1.006625870E1
2.930928821E0,6.495000422E-2,-2.010000050E-1,1.005900002E1,1.006121766E1
2.932916129E0,4.500000179E-2,-2.059500068E-1,1.006095028E1,1.006315860E1
2.934903514E0,6.195000187E-2,-2.130000144E-1,1.006605053E1,1.006849443E1
2.936890670E0,4.995000362E-2,-2.089500129E-1,1.006395054E1,1.006624337E1
2.938878052E0,6.900000572E-2,-2.010000050E-1,1.007100010E1,1.007324203E1
2.940865362E0,6.195000187E-2,-1.990500093E-1,1.006605053E1,1.006820898E1
2.942852516E0,6.000000238E-2,-2.040000111E-1,1.006095028E1,1.006319713E1
2.944839898E0,5.700000376E-2,-2.040000111E-1,1.006605053E1,1.006827881E1
2.946827288E0,4.305000231E-2,-2.059500068E-1,1.007805061E1,1.008024667E1
2.948814673E0,5.505000427E-2,-1.890000105E-1,1.009200001E1,1.009391974E1
2.950802057E0,4.305000231E-2,-1.969500035E-1,1.005600071E1,1.005802132E1
2.952789442E0,5.505000427E-2,-1.939500123E-1,1.005900002E1,1.006102025E1
2.954776826E0,6.495000422E-2,-2.040000111E-1,1.005405045E1,1.005632959E1
2.956764211E0,4.800000042E-2,-1.990500093E-1,1.004505062E1,1.004713725E1
2.958751586E0,5.505000427E-2,-2.010000050E-1,1.005600071E1,1.005815996E1
2.960738971E0,4.500000179E-2,-2.040000111E-1,1.006605053E1,1.006821803E1
2.962726280E0,3.795000166E-2,-1.969500035E-1,1.006605053E1,1.006804861E1
2.964713740E0,4.995000362E-2,-2.040000111E-1,1.005405045E1,1.005624390E1
2.966701126E0,4.800000042E-2,-2.010000050E-1,1.006605053E1,1.006817155E1
2.968688511E0,3.105000220E-2,-1.870500147E-1,1.006605053E1,1.006783617E1
2.970675886E0,1.695000008E-2,-1.870500147E-1,1.007100010E1,1.007275126E1
2.972662963E0,2.205000073E-2,-1.819500029E-1,1.007100010E1,1.007266772E1
2.974650346E0,1.200000010E-2,-1.939500123E-1,1.006395054E1,1.006582640E1
2.976637656E0,1.005000062E-2,-1.890000105E-1,1.008000088E1,1.008177761E1
2.978625038E0,3.105000220E-2,-1.800000072E-1,1.005195045E1,1.005360990E1
2.980612194E0,1.395000052E-2,-1.920000017E-1,1.006395054E1,1.006579153E1
2.982599802E0,1.200000010E-2,-1.969500035E-1,1.006095028E1,1.006288497E1
2.984587189E0,0.000000000E0,-1.849500090E-1,1.007295036E1,1.007464816E1
2.986574574E0,-1.050000079E-3,-1.849500090E-1,1.005900002E1,1.006070022E1
2.988561958E0,1.950000064E-3,-1.920000017E-1,1.007805061E1,1.007987956E1
2.990549343E0,0.000000000E0,-1.800000072E-1,1.007295036E1,1.007455850E1
2.992536803E0,1.950000064E-3,-1.969500035E-1,1.004895020E1,1.005088022E1
2.994524131E0,-6.000000052E-3,-1.990500093E-1,1.004700089E1,1.004897426E1
2.996511591E0,-6.000000052E-3,-1.729500145E-1,1.006095028E1,1.006243848E1
2.998498977E0,-1.050000079E-3,-2.040000111E-1,1.005405045E1,1.005611990E1
3.000486285E0,0.000000000E0,-1.870500147E-1,1.004505062E1,1.004679201E1
3.002473668E0,-1.050000079E-3,-2.010000050E-1,1.005195045E1,1.005395992E1
3.004460824E0,4.950000439E-3,-1.920000017E-1,1.008795071E1,1.008977889E1
3.006448500E0,-1.050000079E-3,-1.870500147E-1,1.007295036E1,1.007468698E1
3.008436115E0,-4.050000105E-3,-1.800000072E-1,1.007595062E1,1.007755910E1
3.010423502E0,-1.800000109E-2,-1.870500147E-1,1.005900002E1,1.006075509E1
3.012410886E0,4.950000439E-3,-1.890000105E-1,1.008300018E1,1.008477259E1
3.014398346E0,1.950000064E-3,-1.800000072E-1,1.006605053E1,1.006765996E1
3.016385733E0,1.395000052E-2,-1.870500147E-1,1.006800079E1,1.006974788E1
3.018373049E0,1.950000064E-3,-1.800000072E-1,1.006800079E1,1.006960991E1
3.020360203E0,0.000000000E0,-1.750500053E-1,1.007100010E1,1.007252131E1
3.022347586E0,7.050000131E-3,-1.939500123E-1,1.005600071E1,1.005787336E1
3.024334665E0,1.200000010E-2,-1.750500053E-1,1.006095028E1,1.006248016E1
3.026321970E0,1.200000010E-2,-2.089500129E-1,1.005600071E1,1.005817848E1
3.028309093E0,1.395000052E-2,-1.939500123E-1,1.007100010E1,1.007287716E1
3.030296399E0,2.895000204E-2,-1.969500035E-1,1.005600071E1,1.005797085E1
3.032283478E0,1.905000024E-2,-1.819500029E-1,1.006605053E1,1.006771285E1
3.034270630E0,2.895000204E-2,-1.890000105E-1,1.004895020E1,1.005076908E1
3.036257937E0,3.105000220E-2,-1.849500090E-1,1.006605053E1,1.006779737E1
3.038245322E0,4.305000231E-2,-1.819500029E-1,1.005195045E1,1.005368923E1
3.040232406E0,3.600000218E-2,-1.750500053E-1,1.006395054E1,1.006553719E1
3.042219789E0,4.500000179E-2,-1.990500093E-1,1.005405045E1,1.005612133E1
3.044207173E0,4.500000179E-2,-1.939500123E-1,1.005600071E1,1.005797156E1
3.046194329E0,4.800000042E-2,-1.890000105E-1,1.005900002E1,1.006088994E1
3.048181635E0,5.505000427E-2,-2.089500129E-1,1.005900002E1,1.006132059E1
3.050169019E0,4.095000029E-2,-1.939500123E-1,1.007100010E1,1.007295073E1
3.052156184E0,4.305000231E-2,-2.040000111E-1,1.007100010E1,1.007315801E1
3.054143567E0,7.695000619E-2,-1.939500123E-1,1.005405045E1,1.005621541E1
3.056130952E0,6.705000252E-2,-1.990500093E-1,1.006605053E1,1.006824165E1
3.058118336E0,8.400000632E-2,-2.110500038E-1,1.004505062E1,1.004761863E1
3.060105646E0,6.705000252E-2,-2.059500068E-1,1.005600071E1,1.005833293E1
3.062093028E0,6.000000238E-2,-2.130000144E-1,1.008000088E1,1.008242960E1
3.064080413E0,6.000000238E-2,-2.110500038E-1,1.007805061E1,1.008043879E1
3.066067569E0,8.100000024E-2,-2.110500038E-1,1.007805061E1,1.008058566E1
3.068055182E0,6.900000572E-2,-2.179500163E-1,1.006605053E1,1.006864621E1
3.070042569E0,7.695000619E-2,-2.230500132E-1,1.006800079E1,1.007076524E1
3.072029954E0,6.495000422E-2,-2.110500038E-1,1.006395054E1,1.006637279E1
3.074017413E0,5.700000376E-2,-2.110500038E-1,1.005405045E1,1.005642687E1
3.076004738E0,6.195000187E-2,-2.110500038E-1,1.005405045E1,1.005645615E1
3.077992197E0,4.305000231E-2,-2.160000056E-1,1.006605053E1,1.006845979E1
3.079979584E0,6.000000238E-2,-2.160000056E-1,1.007100010E1,1.007349488E1
3.081966969E0,6.000000238E-2,-2.110500038E-1,1.007295036E1,1.007533975E1
3.083954276E0,5.505000427E-2,-2.209500074E-1,1.006395054E1,1.006652621E1
3.085941353E0,3.795000166E-2,-2.160000056E-1,1.007295036E1,1.007533747E1
3.087928492E0,4.095000029E-2,-2.059500068E-1,1.006395054E1,1.006614091E1
3.089915798E0,2.205000073E-2,-1.990500093E-1,1.005405045E1,1.005604482E1
3.091903259E0,3.105000220E-2,-2.160000056E-1,1.007100010E1,1.007336404E1
3.093890644E0,3.405000269E-2,-2.040000111E-1,1.007295036E1,1.007507342E1
3.095877954E0,3.405000269E-2,-2.130000144E-1,1.006095028E1,1.006326234E1
3.097865336E0,2.205000073E-2,-1.870500147E-1,1.007595062E1,1.007771079E1
3.099852702E0,1.395000052E-2,-1.819500029E-1,1.006800079E1,1.006965443E1
3.101840086E0,7.050000131E-3,-1.990500093E-1,1.006395054E1,1.006592127E1
3.103827165E0,0.000000000E0,-1.990500093E-1,1.006395054E1,1.006591880E1
3.105814319E0,-1.050000079E-3,-1.890000105E-1,1.004505062E1,1.004682856E1
3.107801396E0,-6.000000052E-3,-1.939500123E-1,1.006395054E1,1.006582103E1
3.109788779E0,-6.000000052E-3,-1.819500029E-1,1.006395054E1,1.006559696E1
3.111776057E0,-1.095000096E-2,-1.819500029E-1,1.007100010E1,1.007264954E1
3.113763136E0,-6.000000052E-3,-1.750500053E-1,1.007100010E1,1.007252310E1
3.115750519E0,-1.305000018E-2,-1.870500147E-1,1.006800079E1,1.006974667E1
3.117737598E0,-1.305000018E-2,-1.849500090E-1,1.008000088E1,1.008170593E1
3.119724752E0,-1.605000161E-2,-1.819500029E-1,1.005600071E1,1.005765945E1
3.121712058E0,-1.605000161E-2,-1.680000126E-1,1.007805061E1,1.007946357E1
3.123699437E0,-2.100000158E-2,-1.660500020E-1,1.008300018E1,1.008438924E1
3.125686822E0,-1.095000096E-2,-1.800000072E-1,1.007100010E1,1.007261450E1
3.127673901E0,-6.000000052E-3,-1.770000011E-1,1.007805061E1,1.007960660E1
3.129661283E0,-1.050000079E-3,-1.870500147E-1,1.006095028E1,1.006268897E1
3.131648668E0,-4.050000105E-3,-1.770000011E-1,1.009200001E1,1.009355287E1
3.133636053E0,-9.000000544E-3,-1.750500053E-1,1.006605053E1,1.006757651E1
3.135623432E0,1.200000010E-2,-1.890000105E-1,1.009695053E1,1.009872641E1
3.137610588E0,0.000000000E0,-1.800000072E-1,1.006800079E1,1.006960972E1
3.139597971E0,1.395000052E-2,-1.750500053E-1,1.005600071E1,1.005753386E1
3.141585280E0,1.395000052E-2,-1.920000017E-1,1.008000088E1,1.008183893E1
3.143572357E0,1.695000008E-2,-1.849500090E-1,1.006395054E1,1.006566412E1
3.145559740E0,2.595000155E-2,-2.089500129E-1,1.005405045E1,1.005625496E1
3.147547129E0,3.405000269E-2,-2.040000111E-1,1.006395054E1,1.006607549E1
3.149534285E0,1.905000024E-2,-1.870500147E-1,1.006395054E1,1.006570668E1
3.151521668E0,4.500000179E-2,-1.819500029E-1,1.007595062E1,1.007769377E1
3.153508978E0,2.595000155E-2,-2.010000050E-1,1.006605053E1,1.006809057E1
3.155496132E0,3.795000166E-2,-2.010000050E-1,1.009695053E1,1.009902229E1
3.157483208E0,5.700000376E-2,-1.849500090E-1,1.005405045E1,1.005591298E1
3.159470586E0,4.500000179E-2,-2.059500068E-1,1.007100010E1,1.007320621E1
3.161457971E0,6.495000422E-2,-2.110500038E-1,1.006605053E1,1.006847227E1
3.163445355E0,5.505000427E-2,-2.160000056E-1,1.007100010E1,1.007346661E1
3.165432740E0,4.800000042E-2,-2.110500038E-1,1.005195045E1,1.005428038E1
3.167420050E0,4.305000231E-2,-2.130000144E-1,1.006800079E1,1.007034569E1
3.169407203E0,5.505000427E-2,-2.040000111E-1,1.006095028E1,1.006316884E1
3.171394514E0,8.100000024E-2,-2.110500038E-1,1.005600071E1,1.005854131E1
3.173381670E0,6.195000187E-2,-1.990500093E-1,1.005900002E1,1.006115997E1
3.175368976E0,6.495000422E-2,-2.130000144E-1,1.006800079E1,1.007046312E1
3.177356132E0,5.505000427E-2,-1.969500035E-1,1.005405045E1,1.005612998E1
3.179343437E0,5.295000225E-2,-2.010000050E-1,1.005405045E1,1.005619884E1
3.181330593E0,4.995000362E-2,-2.110500038E-1,1.007295036E1,1.007528492E1
3.183317636E0,5.505000427E-2,-2.089500129E-1,1.008300018E1,1.008531523E1
3.185304942E0,4.995000362E-2,-1.990500093E-1,1.005405045E1,1.005614470E1
3.187292098E0,6.705000252E-2,-2.040000111E-1,1.006095028E1,1.006324164E1
3.189279403E0,4.500000179E-2,-1.890000105E-1,1.006605053E1,1.006792527E1
3.191266482E0,4.305000231E-2,-1.969500035E-1,1.008000088E1,1.008201668E1
3.193253634E0,4.095000029E-2,-1.939500123E-1,1.006800079E1,1.006995201E1
3.195241024E0,2.895000204E-2,-1.920000017E-1,1.005600071E1,1.005787514E1
3.197228103E0,2.400000021E-2,-1.800000072E-1,1.005405045E1,1.005569025E1
3.199215408E0,2.595000155E-2,-1.849500090E-1,1.005900002E1,1.006073363E1
3.201202564E0,2.400000021E-2,-1.939500123E-1,1.006395054E1,1.006584786E1
3.203189870E0,1.905000024E-2,-1.729500145E-1,1.005195045E1,1.005345625E1
3.205176949E0,1.695000008E-2,-1.800000072E-1,1.005600071E1,1.005762584E1
3.207164031E0,1.005000062E-2,-1.870500147E-1,1.006605053E1,1.006779330E1
3.209151183E0,1.695000008E-2,-1.800000072E-1,1.006800079E1,1.006962399E1
3.211138567E0,1.395000052E-2,-1.699500084E-1,1.005900002E1,1.006044526E1
3.213125646E0,4.950000439E-3,-1.770000011E-1,1.007295036E1,1.007450656E1
3.215113029E0,1.005000062E-2,-1.770000011E-1,1.007295036E1,1.007451036E1
3.217100336E0,7.050000131E-3,-1.660500020E-1,1.007805061E1,1.007942094E1
3.219087716E0,-4.050000105E-3,-1.800000072E-1,1.007595062E1,1.007755910E1
3.221074872E0,4.950000439E-3,-1.750500053E-1,1.006095028E1,1.006247422E1
3.223062178E0,-6.000000052E-3,-1.699500084E-1,1.007595062E1,1.007738557E1
3.225049257E0,-9.000000544E-3,-1.770000011E-1,1.007295036E1,1.007450937E1
3.227036333E0,-9.000000544E-3,-1.770000011E-1,1.007805061E1,1.007960883E1
3.229023180E0,7.050000131E-3,-1.680000126E-1,1.006605053E1,1.006745484E1
3.231010466E0,1.905000024E-2,-1.770000011E-1,1.005405045E1,1.005562640E1
3.232997622E0,1.005000062E-2,-1.819500029E-1,1.010205078E1,1.010369422E1
3.234984699E0,2.205000073E-2,-1.819500029E-1,1.006395054E1,1.006561933E1
3.236971776E0,1.695000008E-2,-1.870500147E-1,1.006605053E1,1.006780255E1
3.238959082E0,4.950000439E-3,-1.939500123E-1,1.006095028E1,1.006282076E1
3.240946238E0,1.395000052E-2,-1.729500145E-1,1.007595062E1,1.007744448E1
3.242933533E0,4.950000439E-3,-2.010000050E-1,1.007295036E1,1.007495680E1
3.244920689E0,2.895000204E-2,-1.969500035E-1,1.005900002E1,1.006096957E1
3.246907995E0,1.395000052E-2,-2.010000050E-1,1.005900002E1,1.006101769E1
3.248895074E0,3.600000218E-2,-2.059500068E-1,1.005900002E1,1.006117253E1
3.250882226E0,3.600000218E-2,-2.010000050E-1,1.004895020E1,1.005102468E1
3.252869228E0,3.795000166E-2,-2.089500129E-1,1.006395054E1,1.006619098E1
3.254856303E0,4.305000231E-2,-2.040000111E-1,1.007295036E1,1.007510786E1
