"Time (s)","Gyroscope x (rad/s)","Gyroscope y (rad/s)","Gyroscope z (rad/s)","Absolute (rad/s)"
8.994167100E-2,2.199999988E-3,-2.062499989E-3,-1.374999993E-4,3.018743514E-3
9.192966700E-2,2.199999988E-3,1.099999994E-3,-1.374999993E-4,2.463515006E-3
9.391789800E-2,2.199999988E-3,1.099999994E-3,-1.374999993E-4,2.463515006E-3
9.590620600E-2,1.237499993E-3,1.099999994E-3,-1.374999993E-4,1.661418812E-3
9.789420800E-2,-9.624999948E-4,2.199999988E-3,-1.374999993E-4,2.405267644E-3
9.988228500E-2,-2.062499989E-3,1.099999994E-3,8.249999955E-4,2.478816488E-3
1.018705290E-1,1.374999993E-4,1.099999994E-3,8.249999955E-4,1.381857890E-3
1.038586080E-1,1.237499993E-3,1.099999994E-3,-1.374999993E-4,1.661418812E-3
1.058466080E-1,1.237499993E-3,3.162499983E-3,-1.374999993E-4,3.398781933E-3
1.078348360E-1,1.237499993E-3,3.162499983E-3,-1.374999993E-4,3.398781933E-3
1.098229150E-1,1.374999993E-4,1.099999994E-3,-1.374999993E-4,1.117055275E-3
1.118111440E-1,1.374999993E-4,0.000000000E0,-1.374999993E-4,1.944543638E-4
1.137992580E-1,1.374999993E-4,0.000000000E0,8.249999955E-4,8.363798434E-4
1.157874870E-1,1.374999993E-4,0.000000000E0,8.249999955E-4,8.363798434E-4
1.177755660E-1,1.374999993E-4,0.000000000E0,8.249999955E-4,8.363798434E-4
1.197635660E-1,1.374999993E-4,-1.099999994E-3,-1.374999993E-4,1.117055275E-3
1.217517940E-1,1.374999993E-4,-2.062499989E-3,-1.374999993E-4,2.071646375E-3
1.237398730E-1,1.374999993E-4,-1.099999994E-3,8.249999955E-4,1.381857890E-3
1.257280930E-1,1.237499993E-3,0.000000000E0,-1.374999993E-4,1.245115450E-3
1.277161720E-1,1.237499993E-3,0.000000000E0,-1.374999993E-4,1.245115450E-3
1.297041720E-1,1.374999993E-4,-1.099999994E-3,-1.374999993E-4,1.117055275E-3
1.316924780E-1,1.374999993E-4,-1.099999994E-3,-1.374999993E-4,1.117055275E-3
1.336804800E-1,1.374999993E-4,0.000000000E0,-1.374999993E-4,1.944543638E-4
1.356687090E-1,1.237499993E-3,1.099999994E-3,-1.374999993E-4,1.661418812E-3
1.376568140E-1,1.237499993E-3,1.099999994E-3,-1.374999993E-4,1.661418812E-3
1.396450420E-1,1.237499993E-3,0.000000000E0,-1.374999993E-4,1.245115450E-3
1.416330440E-1,1.237499993E-3,0.000000000E0,8.249999955E-4,1.487289893E-3
1.436211190E-1,1.237499993E-3,0.000000000E0,8.249999955E-4,1.487289893E-3
1.456094270E-1,1.374999993E-4,0.000000000E0,8.249999955E-4,8.363798434E-4
1.475974290E-1,1.374999993E-4,1.099999994E-3,8.249999955E-4,1.381857890E-3
1.495856690E-1,1.237499993E-3,0.000000000E0,1.924999990E-3,2.288456072E-3
1.515737480E-1,1.374999993E-4,0.000000000E0,1.924999990E-3,1.929904456E-3
1.535619760E-1,1.374999993E-4,1.099999994E-3,8.249999955E-4,1.381857890E-3
1.555500550E-1,1.374999993E-4,2.199999988E-3,-1.374999993E-4,2.208577019E-3
1.575380550E-1,1.237499993E-3,1.099999994E-3,-1.374999993E-4,1.661418812E-3
1.595262840E-1,1.374999993E-4,0.000000000E0,-1.374999993E-4,1.944543638E-4
1.615143640E-1,1.374999993E-4,0.000000000E0,8.249999955E-4,8.363798434E-4
1.635025930E-1,1.374999993E-4,1.099999994E-3,1.924999990E-3,2.221380471E-3
1.654906720E-1,1.237499993E-3,1.099999994E-3,8.249999955E-4,1.849873296E-3
1.674789010E-1,1.237499993E-3,0.000000000E0,-1.374999993E-4,1.245115450E-3
1.694669790E-1,1.237499993E-3,0.000000000E0,-1.374999993E-4,1.245115450E-3
1.714549790E-1,1.374999993E-4,1.099999994E-3,-1.374999993E-4,1.117055275E-3
1.734432140E-1,1.374999993E-4,1.099999994E-3,-1.374999993E-4,1.117055275E-3
1.754312930E-1,1.237499993E-3,0.000000000E0,-1.374999993E-4,1.245115450E-3
1.774195220E-1,1.237499993E-3,0.000000000E0,-1.374999993E-4,1.245115450E-3
1.794075240E-1,1.237499993E-3,0.000000000E0,8.249999955E-4,1.487289893E-3
1.813955990E-1,1.237499993E-3,1.099999994E-3,8.249999955E-4,1.849873296E-3
1.833838300E-1,1.237499993E-3,1.099999994E-3,8.249999955E-4,1.849873296E-3
1.853719210E-1,1.374999993E-4,0.000000000E0,8.249999955E-4,8.363798434E-4
1.873601490E-1,1.374999993E-4,0.000000000E0,8.249999955E-4,8.363798434E-4
1.893482280E-1,1.237499993E-3,1.099999994E-3,-1.374999993E-4,1.661418812E-3
1.913362280E-1,1.237499993E-3,1.099999994E-3,-1.374999993E-4,1.661418812E-3
1.933244570E-1,1.374999993E-4,0.000000000E0,-1.374999993E-4,1.944543638E-4
1.953125360E-1,1.374999993E-4,0.000000000E0,-1.374999993E-4,1.944543638E-4
1.973007620E-1,1.374999993E-4,1.099999994E-3,-1.237499993E-3,1.661418812E-3
1.992888410E-1,1.374999993E-4,1.099999994E-3,-1.374999993E-4,1.117055275E-3
2.012770690E-1,1.374999993E-4,-1.099999994E-3,8.249999955E-4,1.381857890E-3
2.032650710E-1,1.374999993E-4,-2.062499989E-3,8.249999955E-4,2.225631921E-3
2.052533770E-1,-9.624999948E-4,-2.062499989E-3,8.249999955E-4,2.420937305E-3
2.072413790E-1,-9.624999948E-4,-1.099999994E-3,8.249999955E-4,1.678401388E-3
2.092294570E-1,1.374999993E-4,0.000000000E0,-1.374999993E-4,1.944543638E-4
2.112176860E-1,1.374999993E-4,1.099999994E-3,8.249999955E-4,1.381857890E-3
2.132057650E-1,1.237499993E-3,0.000000000E0,8.249999955E-4,1.487289893E-3
2.151939940E-1,1.237499993E-3,0.000000000E0,8.249999955E-4,1.487289893E-3
2.171819960E-1,1.374999993E-4,1.099999994E-3,-1.374999993E-4,1.117055275E-3
2.191700920E-1,1.374999993E-4,0.000000000E0,-1.374999993E-4,1.944543638E-4
2.211583230E-1,1.237499993E-3,-1.099999994E-3,8.249999955E-4,1.849873296E-3
2.231464020E-1,1.374999993E-4,-1.099999994E-3,8.249999955E-4,1.381857890E-3
2.251346310E-1,1.374999993E-4,0.000000000E0,8.249999955E-4,8.363798434E-4
2.271227100E-1,1.237499993E-3,1.099999994E-3,8.249999955E-4,1.849873296E-3
2.291107100E-1,1.237499993E-3,1.099999994E-3,8.249999955E-4,1.849873296E-3
2.310989510E-1,1.374999993E-4,0.000000000E0,8.249999955E-4,8.363798434E-4
2.330870300E-1,1.374999993E-4,0.000000000E0,8.249999955E-4,8.363798434E-4
2.350752580E-1,1.374999993E-4,0.000000000E0,8.249999955E-4,8.363798434E-4
2.370633370E-1,1.374999993E-4,0.000000000E0,-1.374999993E-4,1.944543638E-4
2.390515660E-1,-9.624999948E-4,0.000000000E0,-1.374999993E-4,9.722718189E-4
2.410396450E-1,1.374999993E-4,0.000000000E0,8.249999955E-4,8.363798434E-4
2.430276620E-1,1.374999993E-4,0.000000000E0,8.249999955E-4,8.363798434E-4
2.450158910E-1,1.374999993E-4,0.000000000E0,-1.374999993E-4,1.944543638E-4
2.470039700E-1,1.374999993E-4,0.000000000E0,-1.374999993E-4,1.944543638E-4
2.489921980E-1,1.374999993E-4,1.099999994E-3,-1.374999993E-4,1.117055275E-3
2.509802000E-1,1.374999993E-4,1.099999994E-3,-1.374999993E-4,1.117055275E-3
2.529682750E-1,1.237499993E-3,1.099999994E-3,-1.237499993E-3,2.067078241E-3
2.549566070E-1,1.237499993E-3,1.099999994E-3,-1.237499993E-3,2.067078241E-3
2.569448380E-1,1.237499993E-3,0.000000000E0,-1.374999993E-4,1.245115450E-3
2.589328400E-1,1.237499993E-3,-1.099999994E-3,8.249999955E-4,1.849873296E-3
2.609209170E-1,1.374999993E-4,-1.099999994E-3,8.249999955E-4,1.381857890E-3
2.629091460E-1,1.374999993E-4,0.000000000E0,-1.374999993E-4,1.944543638E-4
2.648971480E-1,1.374999993E-4,0.000000000E0,-1.374999993E-4,1.944543638E-4
2.668852400E-1,1.237499993E-3,1.099999994E-3,-1.374999993E-4,1.661418812E-3
2.688734700E-1,1.237499993E-3,2.199999988E-3,-1.374999993E-4,2.527906729E-3
2.708615490E-1,1.237499993E-3,2.199999988E-3,8.249999955E-4,2.655566074E-3
2.728497780E-1,1.374999993E-4,1.099999994E-3,8.249999955E-4,1.381857890E-3
2.748378570E-1,1.374999993E-4,1.099999994E-3,8.249999955E-4,1.381857890E-3
2.768260860E-1,1.374999993E-4,1.099999994E-3,8.249999955E-4,1.381857890E-3
2.788141710E-1,1.374999993E-4,0.000000000E0,8.249999955E-4,8.363798434E-4
2.808021710E-1,1.374999993E-4,0.000000000E0,-1.374999993E-4,1.944543638E-4
2.827903990E-1,1.237499993E-3,0.000000000E0,-1.374999993E-4,1.245115450E-3
2.847784780E-1,1.237499993E-3,2.199999988E-3,-1.374999993E-4,2.527906729E-3
2.867667070E-1,1.237499993E-3,2.199999988E-3,-1.374999993E-4,2.527906729E-3
2.887547090E-1,1.237499993E-3,0.000000000E0,-1.374999993E-4,1.245115450E-3
2.907430100E-1,1.374999993E-4,-1.099999994E-3,-1.374999993E-4,1.117055275E-3
2.927310890E-1,1.374999993E-4,0.000000000E0,-1.374999993E-4,1.944543638E-4
2.947190890E-1,1.374999993E-4,1.099999994E-3,-1.374999993E-4,1.117055275E-3
2.967073180E-1,1.374999993E-4,1.099999994E-3,1.924999990E-3,2.221380471E-3
2.986953960E-1,1.374999993E-4,1.099999994E-3,1.924999990E-3,2.221380471E-3
3.006836250E-1,1.374999993E-4,1.099999994E-3,8.249999955E-4,1.381857890E-3
3.026716230E-1,1.374999993E-4,0.000000000E0,8.249999955E-4,8.363798434E-4
3.046599290E-1,1.374999993E-4,-1.099999994E-3,1.924999990E-3,2.221380471E-3
3.066479310E-1,1.374999993E-4,0.000000000E0,8.249999955E-4,8.363798434E-4
3.086360080E-1,1.374999993E-4,1.099999994E-3,-1.374999993E-4,1.117055275E-3
3.106242370E-1,1.237499993E-3,1.099999994E-3,-1.374999993E-4,1.661418812E-3
3.126123160E-1,1.237499993E-3,0.000000000E0,8.249999955E-4,1.487289893E-3
3.146005530E-1,1.374999993E-4,1.099999994E-3,-1.374999993E-4,1.117055275E-3
3.165885550E-1,-9.624999948E-4,1.099999994E-3,-1.374999993E-4,1.468098252E-3
3.185766300E-1,-9.624999948E-4,1.099999994E-3,-1.374999993E-4,1.468098252E-3
3.205648610E-1,1.374999993E-4,0.000000000E0,-1.374999993E-4,1.944543638E-4
3.225529400E-1,1.374999993E-4,0.000000000E0,-1.237499993E-3,1.245115450E-3
3.245411690E-1,1.237499993E-3,1.099999994E-3,-1.237499993E-3,2.067078241E-3
3.265291710E-1,1.374999993E-4,0.000000000E0,-1.374999993E-4,1.944543638E-4
3.285173990E-1,1.374999993E-4,0.000000000E0,-1.374999993E-4,1.944543638E-4
3.305054010E-1,-9.624999948E-4,1.099999994E-3,-1.374999993E-4,1.468098252E-3
3.324934760E-1,1.374999993E-4,1.099999994E-3,-1.374999993E-4,1.117055275E-3
3.344817070E-1,1.237499993E-3,0.000000000E0,8.249999955E-4,1.487289893E-3
3.364697860E-1,1.237499993E-3,0.000000000E0,8.249999955E-4,1.487289893E-3
3.384580340E-1,1.374999993E-4,1.099999994E-3,8.249999955E-4,1.381857890E-3
3.404460360E-1,1.374999993E-4,0.000000000E0,-1.374999993E-4,1.944543638E-4
3.424341110E-1,1.237499993E-3,0.000000000E0,8.249999955E-4,1.487289893E-3
3.444223420E-1,2.199999988E-3,1.099999994E-3,8.249999955E-4,2.594344797E-3
3.464104200E-1,1.237499993E-3,1.099999994E-3,8.249999955E-4,1.849873296E-3
3.483986490E-1,1.374999993E-4,0.000000000E0,-1.374999993E-4,1.944543638E-4
3.503867430E-1,-9.624999948E-4,1.099999994E-3,8.249999955E-4,1.678401388E-3
3.523749720E-1,1.374999993E-4,1.099999994E-3,8.249999955E-4,1.381857890E-3
3.543629740E-1,1.374999993E-4,1.099999994E-3,8.249999955E-4,1.381857890E-3
3.563510490E-1,1.374999993E-4,1.099999994E-3,8.249999955E-4,1.381857890E-3
3.583392800E-1,1.374999993E-4,0.000000000E0,8.249999955E-4,8.363798434E-4
3.603273590E-1,1.374999993E-4,-1.099999994E-3,8.249999955E-4,1.381857890E-3
3.623156110E-1,1.374999993E-4,-1.099999994E-3,8.249999955E-4,1.381857890E-3
3.643036900E-1,1.374999993E-4,0.000000000E0,8.249999955E-4,8.363798434E-4
3.662919190E-1,1.374999993E-4,1.099999994E-3,8.249999955E-4,1.381857890E-3
3.682799210E-1,1.374999993E-4,0.000000000E0,8.249999955E-4,8.363798434E-4
3.702679960E-1,1.374999993E-4,2.199999988E-3,-1.374999993E-4,2.208577019E-3
3.722562270E-1,1.374999993E-4,2.199999988E-3,-1.374999993E-4,2.208577019E-3
3.742443200E-1,1.374999993E-4,1.099999994E-3,8.249999955E-4,1.381857890E-3
3.762323200E-1,1.237499993E-3,0.000000000E0,8.249999955E-4,1.487289893E-3
3.782205480E-1,1.237499993E-3,1.099999994E-3,-1.374999993E-4,1.661418812E-3
3.802086270E-1,1.237499993E-3,1.099999994E-3,-1.374999993E-4,1.661418812E-3
3.821968560E-1,1.237499993E-3,0.000000000E0,8.249999955E-4,1.487289893E-3
3.841849350E-1,1.237499993E-3,-1.099999994E-3,8.249999955E-4,1.849873296E-3
3.861731740E-1,1.237499993E-3,0.000000000E0,8.249999955E-4,1.487289893E-3
3.881612530E-1,1.237499993E-3,1.099999994E-3,-1.374999993E-4,1.661418812E-3
3.901494820E-1,1.237499993E-3,1.099999994E-3,-1.374999993E-4,1.661418812E-3
3.921374840E-1,1.237499993E-3,1.099999994E-3,8.249999955E-4,1.849873296E-3
3.941255590E-1,1.237499993E-3,1.099999994E-3,8.249999955E-4,1.849873296E-3
3.961137890E-1,1.237499993E-3,1.099999994E-3,-1.374999993E-4,1.661418812E-3
3.981018630E-1,1.237499993E-3,1.099999994E-3,8.249999955E-4,1.849873296E-3
4.000900920E-1,1.237499993E-3,1.099999994E-3,8.249999955E-4,1.849873296E-3
4.020781710E-1,1.374999993E-4,1.099999994E-3,-1.374999993E-4,1.117055275E-3
4.040664000E-1,1.374999993E-4,0.000000000E0,-1.374999993E-4,1.944543638E-4
4.060544020E-1,1.237499993E-3,0.000000000E0,8.249999955E-4,1.487289893E-3
4.080424770E-1,1.237499993E-3,1.099999994E-3,8.249999955E-4,1.849873296E-3
4.100307070E-1,1.237499993E-3,2.199999988E-3,-1.374999993E-4,2.527906729E-3
4.120187860E-1,1.374999993E-4,1.099999994E-3,-1.374999993E-4,1.117055275E-3
4.140070150E-1,1.237499993E-3,0.000000000E0,8.249999955E-4,1.487289893E-3
4.159950940E-1,1.237499993E-3,-1.099999994E-3,8.249999955E-4,1.849873296E-3
4.179830940E-1,1.374999993E-4,-2.062499989E-3,8.249999955E-4,2.225631921E-3
4.199713370E-1,1.374999993E-4,-2.062499989E-3,-1.374999993E-4,2.071646375E-3
4.219594160E-1,1.374999993E-4,-1.099999994E-3,-1.374999993E-4,1.117055275E-3
4.239476450E-1,1.374999993E-4,-1.099999994E-3,-1.374999993E-4,1.117055275E-3
4.259357230E-1,1.374999993E-4,-1.099999994E-3,-1.374999993E-4,1.117055275E-3
4.279237230E-1,1.374999993E-4,-1.099999994E-3,-1.374999993E-4,1.117055275E-3
4.299119520E-1,1.374999993E-4,0.000000000E0,-1.374999993E-4,1.944543638E-4
4.319000410E-1,1.237499993E-3,1.099999994E-3,-1.374999993E-4,1.661418812E-3
4.338882700E-1,1.237499993E-3,0.000000000E0,8.249999955E-4,1.487289893E-3
4.358763490E-1,1.374999993E-4,0.000000000E0,8.249999955E-4,8.363798434E-4
4.378645780E-1,1.374999993E-4,-1.099999994E-3,8.249999955E-4,1.381857890E-3
4.398526570E-1,1.374999993E-4,-1.099999994E-3,8.249999955E-4,1.381857890E-3
4.418408850E-1,1.374999993E-4,-1.099999994E-3,8.249999955E-4,1.381857890E-3
4.438288960E-1,1.374999993E-4,0.000000000E0,-1.374999993E-4,1.944543638E-4
4.458169710E-1,1.374999993E-4,0.000000000E0,8.249999955E-4,8.363798434E-4
4.478052020E-1,1.374999993E-4,0.000000000E0,8.249999955E-4,8.363798434E-4
4.497932810E-1,1.374999993E-4,0.000000000E0,8.249999955E-4,8.363798434E-4
4.517815100E-1,1.374999993E-4,1.099999994E-3,-1.374999993E-4,1.117055275E-3
4.537695890E-1,1.374999993E-4,2.199999988E-3,-1.374999993E-4,2.208577019E-3
4.557575990E-1,1.374999993E-4,0.000000000E0,-1.374999993E-4,1.944543638E-4
4.577458270E-1,1.237499993E-3,-1.099999994E-3,-1.374999993E-4,1.661418812E-3
4.597339060E-1,1.374999993E-4,-1.099999994E-3,-1.374999993E-4,1.117055275E-3
4.617221350E-1,1.374999993E-4,0.000000000E0,-1.374999993E-4,1.944543638E-4
4.637102140E-1,1.237499993E-3,0.000000000E0,-1.374999993E-4,1.245115450E-3
4.656982140E-1,1.237499993E-3,0.000000000E0,-1.374999993E-4,1.245115450E-3
4.676864570E-1,1.237499993E-3,0.000000000E0,-1.374999993E-4,1.245115450E-3
4.696745360E-1,1.374999993E-4,-1.099999994E-3,-1.374999993E-4,1.117055275E-3
4.716627650E-1,1.374999993E-4,0.000000000E0,-1.374999993E-4,1.944543638E-4
4.736508430E-1,1.374999993E-4,1.099999994E-3,-1.374999993E-4,1.117055275E-3
4.756390720E-1,1.237499993E-3,1.099999994E-3,-1.374999993E-4,1.661418812E-3
4.776271510E-1,1.237499993E-3,0.000000000E0,8.249999955E-4,1.487289893E-3
4.796153950E-1,1.374999993E-4,-1.099999994E-3,8.249999955E-4,1.381857890E-3
4.816033970E-1,1.374999993E-4,-1.099999994E-3,-1.374999993E-4,1.117055275E-3
4.835914720E-1,1.374999993E-4,0.000000000E0,8.249999955E-4,8.363798434E-4
4.855797030E-1,1.374999993E-4,1.099999994E-3,8.249999955E-4,1.381857890E-3
4.875677820E-1,1.374999993E-4,1.099999994E-3,-1.374999993E-4,1.117055275E-3
4.895557820E-1,1.237499993E-3,1.099999994E-3,-1.374999993E-4,1.661418812E-3
4.915440100E-1,2.199999988E-3,2.199999988E-3,-1.374999993E-4,3.114306688E-3
4.935323180E-1,1.237499993E-3,2.199999988E-3,-1.374999993E-4,2.527906729E-3
4.955203200E-1,1.237499993E-3,1.099999994E-3,-1.374999993E-4,1.661418812E-3
4.975083970E-1,1.374999993E-4,1.099999994E-3,-1.374999993E-4,1.117055275E-3
4.994966260E-1,1.374999993E-4,1.099999994E-3,-1.374999993E-4,1.117055275E-3
5.014847050E-1,1.374999993E-4,1.099999994E-3,8.249999955E-4,1.381857890E-3
5.034727340E-1,1.374999993E-4,0.000000000E0,1.924999990E-3,1.929904456E-3
5.054609620E-1,1.374999993E-4,-1.099999994E-3,8.249999955E-4,1.381857890E-3
5.074490410E-1,1.237499993E-3,0.000000000E0,8.249999955E-4,1.487289893E-3
5.094372700E-1,1.237499993E-3,0.000000000E0,8.249999955E-4,1.487289893E-3
5.114253490E-1,1.374999993E-4,1.099999994E-3,8.249999955E-4,1.381857890E-3
5.134135780E-1,1.374999993E-4,1.099999994E-3,-1.374999993E-4,1.117055275E-3
5.154017290E-1,1.237499993E-3,2.199999988E-3,-1.374999993E-4,2.527906729E-3
5.173899580E-1,1.237499993E-3,2.199999988E-3,-1.374999993E-4,2.527906729E-3
5.193779600E-1,1.374999993E-4,2.199999988E-3,-1.374999993E-4,2.208577019E-3
5.213660350E-1,1.374999993E-4,1.099999994E-3,-1.374999993E-4,1.117055275E-3
5.233542650E-1,1.374999993E-4,0.000000000E0,8.249999955E-4,8.363798434E-4
5.253423440E-1,1.237499993E-3,0.000000000E0,8.249999955E-4,1.487289893E-3
5.273305580E-1,1.237499993E-3,1.099999994E-3,-1.374999993E-4,1.661418812E-3
5.293185600E-1,1.237499993E-3,1.099999994E-3,-1.374999993E-4,1.661418812E-3
5.313068660E-1,1.237499993E-3,0.000000000E0,-1.374999993E-4,1.245115450E-3
5.332949450E-1,1.237499993E-3,0.000000000E0,-1.374999993E-4,1.245115450E-3
5.352829450E-1,1.374999993E-4,1.099999994E-3,-1.374999993E-4,1.117055275E-3
5.372711730E-1,1.374999993E-4,1.099999994E-3,8.249999955E-4,1.381857890E-3
5.392592430E-1,1.237499993E-3,0.000000000E0,8.249999955E-4,1.487289893E-3
5.412474720E-1,1.374999993E-4,-1.099999994E-3,8.249999955E-4,1.381857890E-3
5.432355510E-1,-2.062499989E-3,-1.099999994E-3,8.249999955E-4,2.478816488E-3
5.452235510E-1,-9.624999948E-4,0.000000000E0,-1.374999993E-4,9.722718189E-4
5.472117800E-1,1.374999993E-4,0.000000000E0,-1.374999993E-4,1.944543638E-4
5.491998590E-1,1.374999993E-4,0.000000000E0,-1.374999993E-4,1.944543638E-4
5.511880820E-1,1.374999993E-4,0.000000000E0,8.249999955E-4,8.363798434E-4
5.531761610E-1,1.374999993E-4,0.000000000E0,8.249999955E-4,8.363798434E-4
5.551643900E-1,1.374999993E-4,0.000000000E0,-1.374999993E-4,1.944543638E-4
5.571523920E-1,1.374999993E-4,0.000000000E0,-1.374999993E-4,1.944543638E-4
5.591404670E-1,1.374999993E-4,-1.099999994E-3,8.249999955E-4,1.381857890E-3
5.611286980E-1,1.374999993E-4,-1.099999994E-3,1.924999990E-3,2.221380471E-3
5.631167670E-1,1.374999993E-4,1.099999994E-3,8.249999955E-4,1.381857890E-3
5.651049960E-1,1.374999993E-4,1.099999994E-3,-1.374999993E-4,1.117055275E-3
5.670929980E-1,1.374999993E-4,0.000000000E0,-1.374999993E-4,1.944543638E-4
5.690813030E-1,1.374999993E-4,-1.099999994E-3,8.249999955E-4,1.381857890E-3
5.710693050E-1,1.374999993E-4,0.000000000E0,8.249999955E-4,8.363798434E-4
5.730573820E-1,1.374999993E-4,1.099999994E-3,8.249999955E-4,1.381857890E-3
5.750455970E-1,-9.624999948E-4,1.099999994E-3,-1.374999993E-4,1.468098252E-3
5.770336760E-1,1.374999993E-4,1.099999994E-3,-1.374999993E-4,1.117055275E-3
5.790219050E-1,1.374999993E-4,1.099999994E-3,-1.374999993E-4,1.117055275E-3
5.810099070E-1,1.237499993E-3,1.099999994E-3,-1.374999993E-4,1.661418812E-3
5.829982120E-1,1.237499993E-3,0.000000000E0,-1.374999993E-4,1.245115450E-3
5.849862140E-1,1.374999993E-4,-1.099999994E-3,-1.374999993E-4,1.117055275E-3
5.869743000E-1,1.374999993E-4,-1.099999994E-3,-1.374999993E-4,1.117055275E-3
5.889625290E-1,1.237499993E-3,0.000000000E0,-1.374999993E-4,1.245115450E-3
5.909506080E-1,1.237499993E-3,0.000000000E0,-1.374999993E-4,1.245115450E-3
5.929388370E-1,1.237499993E-3,-1.099999994E-3,-1.374999993E-4,1.661418812E-3
5.949268390E-1,1.374999993E-4,-1.099999994E-3,8.249999955E-4,1.381857890E-3
5.969149140E-1,1.374999993E-4,1.099999994E-3,-1.374999993E-4,1.117055275E-3
5.989031500E-1,1.374999993E-4,1.099999994E-3,-1.374999993E-4,1.117055275E-3
6.008912280E-1,1.237499993E-3,2.199999988E-3,-1.374999993E-4,2.527906729E-3
6.028794570E-1,1.237499993E-3,1.099999994E-3,-1.374999993E-4,1.661418812E-3
6.048675360E-1,2.199999988E-3,1.099999994E-3,-1.374999993E-4,2.463515006E-3
6.068557650E-1,1.237499993E-3,1.099999994E-3,-1.374999993E-4,1.661418812E-3
6.088437670E-1,1.374999993E-4,1.099999994E-3,-1.374999993E-4,1.117055275E-3
6.108318280E-1,1.237499993E-3,1.099999994E-3,8.249999955E-4,1.849873296E-3
6.128200590E-1,1.237499993E-3,0.000000000E0,8.249999955E-4,1.487289893E-3
6.148081380E-1,1.374999993E-4,-1.099999994E-3,8.249999955E-4,1.381857890E-3
6.167963660E-1,1.374999993E-4,0.000000000E0,-1.374999993E-4,1.944543638E-4
6.187843680E-1,1.374999993E-4,1.099999994E-3,-1.374999993E-4,1.117055275E-3
6.207726740E-1,1.374999993E-4,2.199999988E-3,-1.374999993E-4,2.208577019E-3
6.227606470E-1,1.374999993E-4,1.099999994E-3,8.249999955E-4,1.381857890E-3
6.247487240E-1,1.374999993E-4,1.099999994E-3,8.249999955E-4,1.381857890E-3
6.267369530E-1,1.237499993E-3,2.199999988E-3,-1.374999993E-4,2.527906729E-3
6.287250320E-1,1.237499993E-3,1.099999994E-3,-1.237499993E-3,2.067078241E-3
6.307132600E-1,1.237499993E-3,0.000000000E0,-1.374999993E-4,1.245115450E-3
6.327013390E-1,1.237499993E-3,1.099999994E-3,-1.374999993E-4,1.661418812E-3
6.346893530E-1,1.374999993E-4,0.000000000E0,8.249999955E-4,8.363798434E-4
6.366775820E-1,-9.624999948E-4,0.000000000E0,8.249999955E-4,1.267687356E-3
6.386656610E-1,1.374999993E-4,0.000000000E0,8.249999955E-4,8.363798434E-4
6.406538900E-1,1.374999993E-4,1.099999994E-3,8.249999955E-4,1.381857890E-3
6.426419690E-1,1.374999993E-4,1.099999994E-3,8.249999955E-4,1.381857890E-3
6.446301980E-1,1.374999993E-4,0.000000000E0,8.249999955E-4,8.363798434E-4
6.466182050E-1,1.374999993E-4,0.000000000E0,-1.374999993E-4,1.944543638E-4
6.486065100E-1,1.374999993E-4,-1.099999994E-3,-1.374999993E-4,1.117055275E-3
6.505945120E-1,1.374999993E-4,-1.099999994E-3,-1.374999993E-4,1.117055275E-3
6.525825890E-1,-9.624999948E-4,-1.099999994E-3,8.249999955E-4,1.678401388E-3
6.545708180E-1,1.374999993E-4,-1.099999994E-3,8.249999955E-4,1.381857890E-3
6.565588970E-1,1.237499993E-3,-1.099999994E-3,8.249999955E-4,1.849873296E-3
6.585468720E-1,1.237499993E-3,-1.099999994E-3,8.249999955E-4,1.849873296E-3
6.605351010E-1,1.237499993E-3,-1.099999994E-3,8.249999955E-4,1.849873296E-3
6.625234080E-1,1.237499993E-3,-2.062499989E-3,8.249999955E-4,2.542820762E-3
6.645114100E-1,1.237499993E-3,-1.099999994E-3,8.249999955E-4,1.849873296E-3
6.664994870E-1,1.237499993E-3,-1.099999994E-3,8.249999955E-4,1.849873296E-3
6.684877160E-1,1.237499993E-3,-1.099999994E-3,-1.374999993E-4,1.661418812E-3
6.704757850E-1,1.374999993E-4,-1.099999994E-3,-1.374999993E-4,1.117055275E-3
6.724637850E-1,1.374999993E-4,-1.099999994E-3,-1.374999993E-4,1.117055275E-3
6.744520140E-1,1.237499993E-3,-1.099999994E-3,8.249999955E-4,1.849873296E-3
6.764400930E-1,1.374999993E-4,0.000000000E0,-1.374999993E-4,1.944543638E-4
6.784283210E-1,1.374999993E-4,1.099999994E-3,-1.374999993E-4,1.117055275E-3
6.804164000E-1,1.374999993E-4,1.099999994E-3,-1.374999993E-4,1.117055275E-3
6.824046440E-1,1.374999993E-4,1.099999994E-3,-1.374999993E-4,1.117055275E-3
6.843927230E-1,1.237499993E-3,1.099999994E-3,-1.374999993E-4,1.661418812E-3
6.863809520E-1,1.237499993E-3,1.099999994E-3,8.249999955E-4,1.849873296E-3
6.883689540E-1,1.374999993E-4,0.000000000E0,8.249999955E-4,8.363798434E-4
6.903570290E-1,1.374999993E-4,-2.062499989E-3,-1.237499993E-3,2.409194614E-3
6.923452600E-1,1.374999993E-4,-2.062499989E-3,-1.237499993E-3,2.409194614E-3
6.943333390E-1,1.374999993E-4,0.000000000E0,-1.374999993E-4,1.944543638E-4
6.963213390E-1,1.374999993E-4,0.000000000E0,-1.374999993E-4,1.944543638E-4
6.983095670E-1,1.374999993E-4,0.000000000E0,-1.374999993E-4,1.944543638E-4
7.002978750E-1,1.374999993E-4,-1.099999994E-3,-1.374999993E-4,1.117055275E-3
7.022858770E-1,1.374999993E-4,0.000000000E0,-1.374999993E-4,1.944543638E-4
7.042739540E-1,1.237499993E-3,0.000000000E0,-1.374999993E-4,1.245115450E-3
7.062621350E-1,1.237499993E-3,0.000000000E0,-1.374999993E-4,1.245115450E-3
7.082502140E-1,1.374999993E-4,1.099999994E-3,-1.374999993E-4,1.117055275E-3
7.102384420E-1,1.237499993E-3,2.199999988E-3,-1.374999993E-4,2.527906729E-3
7.122264440E-1,1.237499993E-3,1.099999994E-3,-1.374999993E-4,1.661418812E-3
7.142145190E-1,1.237499993E-3,-1.099999994E-3,-1.374999993E-4,1.661418812E-3
7.162027500E-1,1.374999993E-4,-1.099999994E-3,8.249999955E-4,1.381857890E-3
7.181908480E-1,1.374999993E-4,-1.099999994E-3,-1.374999993E-4,1.117055275E-3
7.201790770E-1,1.237499993E-3,0.000000000E0,-1.374999993E-4,1.245115450E-3
7.221671560E-1,1.374999993E-4,0.000000000E0,-1.374999993E-4,1.944543638E-4
7.241553850E-1,-9.624999948E-4,0.000000000E0,8.249999955E-4,1.267687356E-3
7.261433870E-1,-9.624999948E-4,1.099999994E-3,-1.374999993E-4,1.468098252E-3
7.281314610E-1,1.374999993E-4,2.199999988E-3,-1.374999993E-4,2.208577019E-3
7.301196340E-1,1.237499993E-3,2.199999988E-3,-1.374999993E-4,2.527906729E-3
7.321077130E-1,1.237499993E-3,1.099999994E-3,-1.374999993E-4,1.661418812E-3
7.340959420E-1,1.374999993E-4,1.099999994E-3,-1.374999993E-4,1.117055275E-3
7.360839440E-1,1.374999993E-4,1.099999994E-3,8.249999955E-4,1.381857890E-3
7.380720190E-1,1.374999993E-4,1.099999994E-3,8.249999955E-4,1.381857890E-3
7.400602500E-1,1.374999993E-4,0.000000000E0,8.249999955E-4,8.363798434E-4
7.420485470E-1,1.237499993E-3,0.000000000E0,8.249999955E-4,1.487289893E-3
7.440365490E-1,1.237499993E-3,0.000000000E0,-1.374999993E-4,1.245115450E-3
7.460246260E-1,1.237499993E-3,0.000000000E0,-1.374999993E-4,1.245115450E-3
7.480128550E-1,1.237499993E-3,0.000000000E0,-1.374999993E-4,1.245115450E-3
7.500009340E-1,1.237499993E-3,1.099999994E-3,-1.374999993E-4,1.661418812E-3
7.519889340E-1,1.237499993E-3,1.099999994E-3,-1.374999993E-4,1.661418812E-3
7.539771730E-1,1.237499993E-3,1.099999994E-3,-1.374999993E-4,1.661418812E-3
7.559652520E-1,1.237499993E-3,0.000000000E0,8.249999955E-4,1.487289893E-3
7.579534800E-1,1.237499993E-3,0.000000000E0,8.249999955E-4,1.487289893E-3
7.599415590E-1,1.237499993E-3,1.099999994E-3,8.249999955E-4,1.849873296E-3
7.619297880E-1,1.374999993E-4,0.000000000E0,-1.374999993E-4,1.944543638E-4
7.639178670E-1,1.374999993E-4,0.000000000E0,-1.237499993E-3,1.245115450E-3
7.659061100E-1,1.237499993E-3,1.099999994E-3,-1.374999993E-4,1.661418812E-3
7.678941120E-1,1.237499993E-3,1.099999994E-3,-1.374999993E-4,1.661418812E-3
7.698821870E-1,1.374999993E-4,0.000000000E0,8.249999955E-4,8.363798434E-4
7.718704180E-1,1.374999993E-4,0.000000000E0,-1.374999993E-4,1.944543638E-4
7.738584960E-1,1.237499993E-3,0.000000000E0,-1.374999993E-4,1.245115450E-3
7.758464960E-1,1.374999993E-4,0.000000000E0,-1.374999993E-4,1.944543638E-4
7.778347490E-1,1.374999993E-4,1.099999994E-3,-1.237499993E-3,1.661418812E-3
7.798230570E-1,1.237499993E-3,2.199999988E-3,-1.237499993E-3,2.811194126E-3
7.818110590E-1,1.237499993E-3,2.199999988E-3,-1.374999993E-4,2.527906729E-3
7.837991360E-1,1.237499993E-3,2.199999988E-3,8.249999955E-4,2.655566074E-3
7.857873650E-1,1.374999993E-4,2.199999988E-3,-1.374999993E-4,2.208577019E-3
7.877754440E-1,1.374999993E-4,0.000000000E0,8.249999955E-4,8.363798434E-4
7.897636580E-1,1.374999993E-4,-1.099999994E-3,-1.374999993E-4,1.117055275E-3
7.917516600E-1,1.374999993E-4,-1.099999994E-3,-1.374999993E-4,1.117055275E-3
7.937397350E-1,1.374999993E-4,-1.099999994E-3,-1.374999993E-4,1.117055275E-3
7.957279660E-1,1.374999993E-4,-1.099999994E-3,8.249999955E-4,1.381857890E-3
7.977160450E-1,1.374999993E-4,-1.099999994E-3,1.924999990E-3,2.221380471E-3
7.997042740E-1,1.374999993E-4,-1.099999994E-3,1.924999990E-3,2.221380471E-3
8.016923630E-1,1.374999993E-4,0.000000000E0,-1.374999993E-4,1.944543638E-4
8.036805910E-1,-9.624999948E-4,0.000000000E0,-1.237499993E-3,1.567741201E-3
8.056685930E-1,-9.624999948E-4,0.000000000E0,-1.374999993E-4,9.722718189E-4
8.076566680E-1,1.374999993E-4,-1.099999994E-3,8.249999955E-4,1.381857890E-3
8.096448990E-1,1.374999993E-4,-1.099999994E-3,8.249999955E-4,1.381857890E-3
8.116329780E-1,1.374999993E-4,-1.099999994E-3,8.249999955E-4,1.381857890E-3
8.136212450E-1,1.374999993E-4,0.000000000E0,8.249999955E-4,8.363798434E-4
8.156092470E-1,1.237499993E-3,2.199999988E-3,-1.374999993E-4,2.527906729E-3
8.175973220E-1,1.237499993E-3,2.199999988E-3,-1.237499993E-3,2.811194126E-3
8.195855530E-1,1.374999993E-4,0.000000000E0,-1.374999993E-4,1.944543638E-4
8.215738600E-1,-9.624999948E-4,0.000000000E0,-1.374999993E-4,9.722718189E-4
8.235618620E-1,1.237499993E-3,0.000000000E0,-1.237499993E-3,1.750089274E-3
8.255499200E-1,2.199999988E-3,-1.099999994E-3,-1.374999993E-4,2.463515006E-3
8.275381490E-1,1.237499993E-3,-1.099999994E-3,8.249999955E-4,1.849873296E-3
8.295262280E-1,1.237499993E-3,-1.099999994E-3,8.249999955E-4,1.849873296E-3
8.315142280E-1,1.237499993E-3,1.099999994E-3,-1.374999993E-4,1.661418812E-3
8.335024570E-1,1.237499993E-3,2.199999988E-3,-1.374999993E-4,2.527906729E-3
8.354905360E-1,1.374999993E-4,1.099999994E-3,8.249999955E-4,1.381857890E-3
8.374787640E-1,1.237499993E-3,-1.099999994E-3,8.249999955E-4,1.849873296E-3
8.394668430E-1,1.237499993E-3,0.000000000E0,8.249999955E-4,1.487289893E-3
8.414550720E-1,1.374999993E-4,1.099999994E-3,8.249999955E-4,1.381857890E-3
8.434431510E-1,1.374999993E-4,0.000000000E0,8.249999955E-4,8.363798434E-4
8.454313800E-1,1.374999993E-4,0.000000000E0,8.249999955E-4,8.363798434E-4
8.474193820E-1,1.374999993E-4,1.099999994E-3,-1.374999993E-4,1.117055275E-3
8.494074610E-1,1.237499993E-3,2.199999988E-3,-1.374999993E-4,2.527906729E-3
8.513956920E-1,1.237499993E-3,2.199999988E-3,-1.374999993E-4,2.527906729E-3
8.533837700E-1,1.374999993E-4,1.099999994E-3,-1.374999993E-4,1.117055275E-3
8.553717700E-1,1.374999993E-4,0.000000000E0,8.249999955E-4,8.363798434E-4
8.573599990E-1,1.374999993E-4,0.000000000E0,8.249999955E-4,8.363798434E-4
8.593483070E-1,1.237499993E-3,0.000000000E0,8.249999955E-4,1.487289893E-3
8.613362950E-1,1.237499993E-3,0.000000000E0,8.249999955E-4,1.487289893E-3
8.633243720E-1,1.374999993E-4,0.000000000E0,-1.374999993E-4,1.944543638E-4
8.653126010E-1,1.374999993E-4,0.000000000E0,-1.374999993E-4,1.944543638E-4
8.673006800E-1,1.237499993E-3,-1.099999994E-3,8.249999955E-4,1.849873296E-3
8.692889080E-1,1.237499993E-3,0.000000000E0,8.249999955E-4,1.487289893E-3
8.712769870E-1,1.374999993E-4,1.099999994E-3,8.249999955E-4,1.381857890E-3
8.732649820E-1,1.374999993E-4,0.000000000E0,8.249999955E-4,8.363798434E-4
8.752532110E-1,1.374999993E-4,0.000000000E0,8.249999955E-4,8.363798434E-4
8.772412900E-1,1.374999993E-4,0.000000000E0,8.249999955E-4,8.363798434E-4
8.792295190E-1,1.374999993E-4,0.000000000E0,8.249999955E-4,8.363798434E-4
8.812175980E-1,1.374999993E-4,-1.099999994E-3,8.249999955E-4,1.381857890E-3
8.832058260E-1,1.237499993E-3,-1.099999994E-3,-1.374999993E-4,1.661418812E-3
8.851938470E-1,1.237499993E-3,0.000000000E0,-1.374999993E-4,1.245115450E-3
8.871821530E-1,1.237499993E-3,1.099999994E-3,8.249999955E-4,1.849873296E-3
8.891701550E-1,1.374999993E-4,0.000000000E0,8.249999955E-4,8.363798434E-4
8.911582320E-1,1.374999993E-4,0.000000000E0,-1.374999993E-4,1.944543638E-4
8.931464610E-1,1.374999993E-4,-1.099999994E-3,-1.374999993E-4,1.117055275E-3
8.951345400E-1,1.374999993E-4,-2.062499989E-3,8.249999955E-4,2.225631921E-3
8.971225840E-1,1.374999993E-4,-2.062499989E-3,-1.374999993E-4,2.071646375E-3
8.991108130E-1,1.374999993E-4,0.000000000E0,-1.374999993E-4,1.944543638E-4
9.010991200E-1,1.374999993E-4,0.000000000E0,-1.374999993E-4,1.944543638E-4
9.030871220E-1,1.374999993E-4,-1.099999994E-3,8.249999955E-4,1.381857890E-3
9.050751990E-1,1.237499993E-3,-1.099999994E-3,-1.374999993E-4,1.661418812E-3
9.070634280E-1,1.237499993E-3,0.000000000E0,-1.374999993E-4,1.245115450E-3
9.090514870E-1,1.237499993E-3,0.000000000E0,-1.374999993E-4,1.245115450E-3
9.110397160E-1,1.237499993E-3,0.000000000E0,-1.374999993E-4,1.245115450E-3
9.130277180E-1,1.237499993E-3,1.099999994E-3,-1.237499993E-3,2.067078241E-3
9.150157930E-1,1.237499993E-3,1.099999994E-3,-1.237499993E-3,2.067078241E-3
9.170040230E-1,1.374999993E-4,0.000000000E0,-1.374999993E-4,1.944543638E-4
9.189921020E-1,1.374999993E-4,0.000000000E0,-1.374999993E-4,1.944543638E-4
9.209803890E-1,1.374999993E-4,1.099999994E-3,-1.374999993E-4,1.117055275E-3
9.229684680E-1,1.237499993E-3,0.000000000E0,8.249999955E-4,1.487289893E-3
9.249566970E-1,2.199999988E-3,-1.099999994E-3,8.249999955E-4,2.594344797E-3
9.269447760E-1,2.199999988E-3,0.000000000E0,-1.374999993E-4,2.204292675E-3
9.289330040E-1,1.237499993E-3,0.000000000E0,-1.374999993E-4,1.245115450E-3
9.309210060E-1,1.374999993E-4,1.099999994E-3,-1.237499993E-3,1.661418812E-3
9.329090760E-1,1.237499993E-3,1.099999994E-3,-1.374999993E-4,1.661418812E-3
9.348973070E-1,1.237499993E-3,0.000000000E0,-1.374999993E-4,1.245115450E-3
9.368853860E-1,1.237499993E-3,0.000000000E0,8.249999955E-4,1.487289893E-3
9.388736150E-1,1.237499993E-3,0.000000000E0,-1.374999993E-4,1.245115450E-3
9.408616170E-1,1.237499993E-3,0.000000000E0,8.249999955E-4,1.487289893E-3
9.428496920E-1,1.237499993E-3,-1.099999994E-3,8.249999955E-4,1.849873296E-3
9.448379280E-1,1.374999993E-4,1.099999994E-3,8.249999955E-4,1.381857890E-3
9.468260070E-1,1.374999993E-4,2.199999988E-3,-1.374999993E-4,2.208577019E-3
9.488142350E-1,1.237499993E-3,1.099999994E-3,8.249999955E-4,1.849873296E-3
9.508023140E-1,1.237499993E-3,0.000000000E0,8.249999955E-4,1.487289893E-3
9.527905430E-1,1.374999993E-4,0.000000000E0,-1.374999993E-4,1.944543638E-4
9.547785450E-1,1.374999993E-4,0.000000000E0,-1.374999993E-4,1.944543638E-4
9.567666200E-1,1.374999993E-4,0.000000000E0,8.249999955E-4,8.363798434E-4
9.587548510E-1,1.374999993E-4,0.000000000E0,8.249999955E-4,8.363798434E-4
9.607429300E-1,1.374999993E-4,0.000000000E0,8.249999955E-4,8.363798434E-4
9.627311580E-1,1.237499993E-3,0.000000000E0,-1.374999993E-4,1.245115450E-3
9.647191600E-1,1.374999993E-4,1.099999994E-3,-1.374999993E-4,1.117055275E-3
9.667074660E-1,1.374999993E-4,1.099999994E-3,-1.374999993E-4,1.117055275E-3
9.686955160E-1,1.374999993E-4,0.000000000E0,-1.374999993E-4,1.944543638E-4
9.706837450E-1,1.237499993E-3,-1.099999994E-3,8.249999955E-4,1.849873296E-3
9.726717470E-1,2.199999988E-3,-2.062499989E-3,1.924999990E-3,3.577643234E-3
9.746598220E-1,1.237499993E-3,-2.062499989E-3,1.924999990E-3,3.080736502E-3
9.766480530E-1,1.374999993E-4,-1.099999994E-3,8.249999955E-4,1.381857890E-3
9.786361310E-1,-9.624999948E-4,-1.099999994E-3,8.249999955E-4,1.678401388E-3
9.806243890E-1,1.374999993E-4,0.000000000E0,8.249999955E-4,8.363798434E-4
9.826123910E-1,1.237499993E-3,1.099999994E-3,-1.374999993E-4,1.661418812E-3
9.846004660E-1,1.237499993E-3,0.000000000E0,-1.374999993E-4,1.245115450E-3
9.865886970E-1,1.374999993E-4,0.000000000E0,-1.374999993E-4,1.944543638E-4
9.885767760E-1,1.237499993E-3,0.000000000E0,-1.374999993E-4,1.245115450E-3
9.905650050E-1,1.237499993E-3,-1.099999994E-3,8.249999955E-4,1.849873296E-3
9.925530700E-1,1.374999993E-4,-1.099999994E-3,8.249999955E-4,1.381857890E-3
9.945412980E-1,1.374999993E-4,0.000000000E0,8.249999955E-4,8.363798434E-4
9.965293000E-1,1.374999993E-4,0.000000000E0,-1.374999993E-4,1.944543638E-4
9.985173750E-1,1.374999993E-4,-1.099999994E-3,-1.374999993E-4,1.117055275E-3
1.000505606E0,1.374999993E-4,-2.062499989E-3,-1.374999993E-4,2.071646375E-3
1.002493685E0,1.374999993E-4,0.000000000E0,-1.374999993E-4,1.944543638E-4
1.004481885E0,1.237499993E-3,1.099999994E-3,-1.374999993E-4,1.661418812E-3
1.006469964E0,1.237499993E-3,0.000000000E0,8.249999955E-4,1.487289893E-3
1.008458192E0,1.374999993E-4,0.000000000E0,1.924999990E-3,1.929904456E-3
1.010446271E0,1.374999993E-4,1.099999994E-3,8.249999955E-4,1.381857890E-3
1.012434500E0,1.374999993E-4,1.099999994E-3,8.249999955E-4,1.381857890E-3
1.014422502E0,1.374999993E-4,-1.099999994E-3,8.249999955E-4,1.381857890E-3
1.016410577E0,-9.624999948E-4,0.000000000E0,8.249999955E-4,1.267687356E-3
1.018398808E0,1.374999993E-4,1.099999994E-3,-1.374999993E-4,1.117055275E-3
1.020386887E0,1.237499993E-3,1.099999994E-3,8.249999955E-4,1.849873296E-3
1.022374887E0,1.237499993E-3,0.000000000E0,-1.374999993E-4,1.245115450E-3
1.024363116E0,1.374999993E-4,0.000000000E0,-1.374999993E-4,1.944543638E-4
1.026351423E0,1.374999993E-4,0.000000000E0,-1.374999993E-4,1.944543638E-4
1.028339425E0,1.374999993E-4,0.000000000E0,-1.374999993E-4,1.944543638E-4
1.030327502E0,1.237499993E-3,1.099999994E-3,-1.374999993E-4,1.661418812E-3
1.032315731E0,1.237499993E-3,1.099999994E-3,-1.374999993E-4,1.661418812E-3
1.034303810E0,-9.624999948E-4,0.000000000E0,-1.374999993E-4,9.722718189E-4
1.036292039E0,1.374999993E-4,0.000000000E0,-1.374999993E-4,1.944543638E-4
1.038280046E0,2.199999988E-3,0.000000000E0,8.249999955E-4,2.349601017E-3
1.040268121E0,2.199999988E-3,0.000000000E0,8.249999955E-4,2.349601017E-3
1.042256351E0,1.374999993E-4,0.000000000E0,8.249999955E-4,8.363798434E-4
1.044244430E0,1.374999993E-4,-1.099999994E-3,-1.374999993E-4,1.117055275E-3
1.046232659E0,1.237499993E-3,0.000000000E0,-1.374999993E-4,1.245115450E-3
1.048220738E0,1.237499993E-3,0.000000000E0,8.249999955E-4,1.487289893E-3
1.050208981E0,1.374999993E-4,0.000000000E0,-1.374999993E-4,1.944543638E-4
1.052196983E0,1.374999993E-4,0.000000000E0,-1.374999993E-4,1.944543638E-4
1.054185058E0,1.374999993E-4,0.000000000E0,-1.374999993E-4,1.944543638E-4
1.056173288E0,1.374999993E-4,0.000000000E0,-1.374999993E-4,1.944543638E-4
1.058161367E0,1.374999993E-4,0.000000000E0,-1.374999993E-4,1.944543638E-4
1.060149596E0,1.374999993E-4,0.000000000E0,-1.374999993E-4,1.944543638E-4
1.062137685E0,1.374999993E-4,-1.099999994E-3,8.249999955E-4,1.381857890E-3
1.064125685E0,1.374999993E-4,-2.062499989E-3,8.249999955E-4,2.225631921E-3
1.066113914E0,1.374999993E-4,-1.099999994E-3,8.249999955E-4,1.381857890E-3
1.068101993E0,1.374999993E-4,1.099999994E-3,-1.374999993E-4,1.117055275E-3
1.070090222E0,1.374999993E-4,0.000000000E0,-1.374999993E-4,1.944543638E-4
1.072078301E0,1.237499993E-3,0.000000000E0,-1.374999993E-4,1.245115450E-3
1.074066509E0,1.237499993E-3,0.000000000E0,8.249999955E-4,1.487289893E-3
1.076054588E0,1.237499993E-3,0.000000000E0,8.249999955E-4,1.487289893E-3
1.078042817E0,1.374999993E-4,-1.099999994E-3,-1.374999993E-4,1.117055275E-3
1.080030819E0,-9.624999948E-4,-1.099999994E-3,-1.374999993E-4,1.468098252E-3
1.082018894E0,1.374999993E-4,0.000000000E0,8.249999955E-4,8.363798434E-4
1.084007125E0,1.374999993E-4,-1.099999994E-3,8.249999955E-4,1.381857890E-3
1.085995199E0,-9.624999948E-4,-1.099999994E-3,8.249999955E-4,1.678401388E-3
1.087983427E0,-9.624999948E-4,0.000000000E0,-1.374999993E-4,9.722718189E-4
1.089971506E0,1.374999993E-4,0.000000000E0,-1.374999993E-4,1.944543638E-4
1.091959735E0,1.237499993E-3,1.099999994E-3,8.249999955E-4,1.849873296E-3
1.093947737E0,1.237499993E-3,1.099999994E-3,8.249999955E-4,1.849873296E-3
1.095936043E0,1.237499993E-3,0.000000000E0,8.249999955E-4,1.487289893E-3
1.097924060E0,1.237499993E-3,0.000000000E0,8.249999955E-4,1.487289893E-3
1.099912137E0,1.374999993E-4,0.000000000E0,-1.374999993E-4,1.944543638E-4
1.101900366E0,-9.624999948E-4,0.000000000E0,-1.374999993E-4,9.722718189E-4
1.103888444E0,-9.624999948E-4,0.000000000E0,-1.374999993E-4,9.722718189E-4
1.105876673E0,1.374999993E-4,0.000000000E0,-1.374999993E-4,1.944543638E-4
1.107864675E0,1.374999993E-4,0.000000000E0,8.249999955E-4,8.363798434E-4
1.109852730E0,1.374999993E-4,0.000000000E0,8.249999955E-4,8.363798434E-4
1.111840961E0,1.374999993E-4,0.000000000E0,8.249999955E-4,8.363798434E-4
1.113829040E0,1.237499993E-3,0.000000000E0,8.249999955E-4,1.487289893E-3
1.115817269E0,1.237499993E-3,0.000000000E0,8.249999955E-4,1.487289893E-3
1.117805348E0,1.237499993E-3,1.099999994E-3,-1.374999993E-4,1.661418812E-3
1.119793576E0,1.374999993E-4,1.099999994E-3,-1.374999993E-4,1.117055275E-3
1.121781675E0,1.374999993E-4,0.000000000E0,-1.374999993E-4,1.944543638E-4
1.123769675E0,1.374999993E-4,1.099999994E-3,-1.374999993E-4,1.117055275E-3
1.125757904E0,1.374999993E-4,1.099999994E-3,-1.374999993E-4,1.117055275E-3
1.127745983E0,1.374999993E-4,0.000000000E0,-1.374999993E-4,1.944543638E-4
1.129734212E0,1.374999993E-4,0.000000000E0,8.249999955E-4,8.363798434E-4
1.131722214E0,1.374999993E-4,0.000000000E0,8.249999955E-4,8.363798434E-4
1.133710284E0,1.374999993E-4,0.000000000E0,-1.374999993E-4,1.944543638E-4
1.135698591E0,1.237499993E-3,0.000000000E0,-1.374999993E-4,1.245115450E-3
1.137686822E0,1.237499993E-3,1.099999994E-3,-1.374999993E-4,1.661418812E-3
1.139674901E0,1.374999993E-4,1.099999994E-3,8.249999955E-4,1.381857890E-3
1.141662901E0,1.237499993E-3,0.000000000E0,-1.374999993E-4,1.245115450E-3
1.143651130E0,1.237499993E-3,0.000000000E0,-1.374999993E-4,1.245115450E-3
1.145639199E0,1.237499993E-3,0.000000000E0,-1.374999993E-4,1.245115450E-3
1.147627428E0,1.237499993E-3,1.099999994E-3,-1.374999993E-4,1.661418812E-3
1.149615430E0,1.237499993E-3,1.099999994E-3,-1.374999993E-4,1.661418812E-3
1.151603504E0,1.374999993E-4,1.099999994E-3,-1.374999993E-4,1.117055275E-3
1.153591735E0,1.374999993E-4,0.000000000E0,-1.374999993E-4,1.944543638E-4
1.155579833E0,1.374999993E-4,-1.099999994E-3,8.249999955E-4,1.381857890E-3
1.157568062E0,1.374999993E-4,-1.099999994E-3,8.249999955E-4,1.381857890E-3
1.159556141E0,1.374999993E-4,0.000000000E0,8.249999955E-4,8.363798434E-4
1.161544370E0,1.237499993E-3,0.000000000E0,8.249999955E-4,1.487289893E-3
1.163532372E0,2.199999988E-3,1.099999994E-3,8.249999955E-4,2.594344797E-3
1.165520677E0,1.237499993E-3,1.099999994E-3,-1.374999993E-4,1.661418812E-3
1.167508679E0,1.374999993E-4,1.099999994E-3,-1.374999993E-4,1.117055275E-3
1.169496756E0,1.374999993E-4,1.099999994E-3,-1.374999993E-4,1.117055275E-3
1.171484985E0,1.374999993E-4,1.099999994E-3,-1.374999993E-4,1.117055275E-3
1.173473064E0,1.374999993E-4,1.099999994E-3,8.249999955E-4,1.381857890E-3
1.175461293E0,1.374999993E-4,1.099999994E-3,8.249999955E-4,1.381857890E-3
1.177449295E0,-9.624999948E-4,1.099999994E-3,-1.374999993E-4,1.468098252E-3
1.179437390E0,1.374999993E-4,0.000000000E0,-1.374999993E-4,1.944543638E-4
1.181425620E0,1.374999993E-4,0.000000000E0,-1.374999993E-4,1.944543638E-4
1.183413699E0,1.374999993E-4,0.000000000E0,-1.374999993E-4,1.944543638E-4
1.185401928E0,1.237499993E-3,0.000000000E0,-1.374999993E-4,1.245115450E-3
1.187390007E0,2.199999988E-3,0.000000000E0,-1.374999993E-4,2.204292675E-3
1.189378236E0,1.237499993E-3,1.099999994E-3,-1.374999993E-4,1.661418812E-3
1.191366310E0,1.374999993E-4,1.099999994E-3,-1.374999993E-4,1.117055275E-3
1.193354310E0,1.374999993E-4,0.000000000E0,8.249999955E-4,8.363798434E-4
1.195342539E0,-9.624999948E-4,-1.099999994E-3,8.249999955E-4,1.678401388E-3
1.197330617E0,-2.062499989E-3,0.000000000E0,8.249999955E-4,2.221380471E-3
1.199318846E0,-9.624999948E-4,1.099999994E-3,8.249999955E-4,1.678401388E-3
1.201306925E0,1.374999993E-4,1.099999994E-3,-1.374999993E-4,1.117055275E-3
1.203295154E0,1.237499993E-3,0.000000000E0,8.249999955E-4,1.487289893E-3
1.205283233E0,1.237499993E-3,0.000000000E0,1.924999990E-3,2.288456072E-3
1.207271462E0,1.237499993E-3,0.000000000E0,1.924999990E-3,2.288456072E-3
1.209259541E0,1.237499993E-3,0.000000000E0,8.249999955E-4,1.487289893E-3
1.211247541E0,1.374999993E-4,1.099999994E-3,8.249999955E-4,1.381857890E-3
1.213235769E0,1.374999993E-4,0.000000000E0,8.249999955E-4,8.363798434E-4
1.215223833E0,1.374999993E-4,0.000000000E0,8.249999955E-4,8.363798434E-4
1.217212062E0,1.374999993E-4,0.000000000E0,8.249999955E-4,8.363798434E-4
1.219200141E0,1.374999993E-4,-1.099999994E-3,8.249999955E-4,1.381857890E-3
1.221188141E0,1.374999993E-4,-1.099999994E-3,8.249999955E-4,1.381857890E-3
1.223176370E0,1.237499993E-3,0.000000000E0,-1.374999993E-4,1.245115450E-3
1.225164449E0,1.237499993E-3,1.099999994E-3,-1.374999993E-4,1.661418812E-3
1.227152692E0,2.199999988E-3,1.099999994E-3,8.249999955E-4,2.594344797E-3
1.229140771E0,1.237499993E-3,1.099999994E-3,8.249999955E-4,1.849873296E-3
1.231129000E0,1.237499993E-3,0.000000000E0,-1.374999993E-4,1.245115450E-3
1.233117079E0,1.237499993E-3,-1.099999994E-3,-1.237499993E-3,2.067078241E-3
1.235105308E0,1.374999993E-4,0.000000000E0,-1.374999993E-4,1.944543638E-4
1.237093310E0,1.374999993E-4,0.000000000E0,8.249999955E-4,8.363798434E-4
1.239081400E0,1.237499993E-3,0.000000000E0,-1.374999993E-4,1.245115450E-3
1.241069631E0,1.237499993E-3,1.099999994E-3,-1.374999993E-4,1.661418812E-3
1.243057710E0,1.237499993E-3,1.099999994E-3,-1.374999993E-4,1.661418812E-3
1.245045938E0,1.374999993E-4,1.099999994E-3,-1.374999993E-4,1.117055275E-3
1.247034017E0,1.374999993E-4,0.000000000E0,-1.374999993E-4,1.944543638E-4
1.249022246E0,1.374999993E-4,0.000000000E0,-1.374999993E-4,1.944543638E-4
1.251010310E0,1.374999993E-4,-1.099999994E-3,8.249999955E-4,1.381857890E-3
1.252998310E0,1.374999993E-4,-1.099999994E-3,-1.374999993E-4,1.117055275E-3
1.254986539E0,1.374999993E-4,0.000000000E0,-1.374999993E-4,1.944543638E-4
1.256974618E0,1.374999993E-4,1.099999994E-3,-1.374999993E-4,1.117055275E-3
1.258962846E0,1.374999993E-4,1.099999994E-3,-1.374999993E-4,1.117055275E-3
1.260950925E0,1.374999993E-4,0.000000000E0,-1.237499993E-3,1.245115450E-3
1.262938940E0,1.374999993E-4,0.000000000E0,-1.237499993E-3,1.245115450E-3
1.264927246E0,1.237499993E-3,0.000000000E0,-1.374999993E-4,1.245115450E-3
1.266915248E0,2.199999988E-3,1.099999994E-3,-1.374999993E-4,2.463515006E-3
1.268903477E0,1.237499993E-3,1.099999994E-3,-1.374999993E-4,1.661418812E-3
1.270891556E0,1.374999993E-4,0.000000000E0,-1.374999993E-4,1.944543638E-4
1.272879785E0,1.374999993E-4,-1.099999994E-3,8.249999955E-4,1.381857890E-3
1.274867858E0,1.374999993E-4,-2.062499989E-3,8.249999955E-4,2.225631921E-3
1.276856087E0,1.374999993E-4,-1.099999994E-3,8.249999955E-4,1.381857890E-3
1.278844166E0,1.374999993E-4,0.000000000E0,8.249999955E-4,8.363798434E-4
1.280832395E0,1.237499993E-3,1.099999994E-3,8.249999955E-4,1.849873296E-3
1.282820397E0,2.199999988E-3,2.199999988E-3,8.249999955E-4,3.218792458E-3
1.284808472E0,1.237499993E-3,1.099999994E-3,8.249999955E-4,1.849873296E-3
1.286796698E0,1.374999993E-4,0.000000000E0,8.249999955E-4,8.363798434E-4
1.288784777E0,-9.624999948E-4,0.000000000E0,-1.374999993E-4,9.722718189E-4
1.290772777E0,1.374999993E-4,-1.099999994E-3,-1.374999993E-4,1.117055275E-3
1.292761005E0,1.374999993E-4,-1.099999994E-3,-1.374999993E-4,1.117055275E-3
1.294749313E0,-9.624999948E-4,1.099999994E-3,-1.374999993E-4,1.468098252E-3
1.296737392E0,-9.624999948E-4,1.099999994E-3,-1.374999993E-4,1.468098252E-3
1.298725406E0,-9.624999948E-4,1.099999994E-3,8.249999955E-4,1.678401388E-3
1.300713635E0,1.374999993E-4,0.000000000E0,8.249999955E-4,8.363798434E-4
1.302701714E0,1.237499993E-3,1.099999994E-3,8.249999955E-4,1.849873296E-3
1.304689942E0,2.199999988E-3,1.099999994E-3,8.249999955E-4,2.594344797E-3
1.306678021E0,1.237499993E-3,0.000000000E0,8.249999955E-4,1.487289893E-3
1.308666021E0,1.374999993E-4,0.000000000E0,-1.374999993E-4,1.944543638E-4
1.310654255E0,1.374999993E-4,1.099999994E-3,-1.374999993E-4,1.117055275E-3
1.312642334E0,1.237499993E-3,1.099999994E-3,8.249999955E-4,1.849873296E-3
1.314630563E0,1.374999993E-4,0.000000000E0,8.249999955E-4,8.363798434E-4
1.316618642E0,1.374999993E-4,-1.099999994E-3,8.249999955E-4,1.381857890E-3
1.318606871E0,1.374999993E-4,0.000000000E0,8.249999955E-4,8.363798434E-4
1.320594949E0,1.374999993E-4,0.000000000E0,8.249999955E-4,8.363798434E-4
1.322583154E0,-9.624999948E-4,-1.099999994E-3,8.249999955E-4,1.678401388E-3
1.324571233E0,1.374999993E-4,-1.099999994E-3,8.249999955E-4,1.381857890E-3
1.326559233E0,1.237499993E-3,0.000000000E0,-1.374999993E-4,1.245115450E-3
1.328547462E0,1.237499993E-3,0.000000000E0,-1.374999993E-4,1.245115450E-3
1.330535541E0,1.237499993E-3,-1.099999994E-3,-1.374999993E-4,1.661418812E-3
1.332523770E0,1.374999993E-4,-1.099999994E-3,-1.374999993E-4,1.117055275E-3
1.334511849E0,1.374999993E-4,0.000000000E0,-1.374999993E-4,1.944543638E-4
1.336499849E0,1.374999993E-4,-1.099999994E-3,-1.374999993E-4,1.117055275E-3
1.338488077E0,1.374999993E-4,-1.099999994E-3,-1.374999993E-4,1.117055275E-3
1.340476156E0,1.237499993E-3,-1.099999994E-3,8.249999955E-4,1.849873296E-3
1.342464385E0,1.237499993E-3,0.000000000E0,8.249999955E-4,1.487289893E-3
1.344452464E0,1.237499993E-3,0.000000000E0,8.249999955E-4,1.487289893E-3
1.346440679E0,1.237499993E-3,-1.099999994E-3,8.249999955E-4,1.849873296E-3
1.348428758E0,1.237499993E-3,0.000000000E0,-1.374999993E-4,1.245115450E-3
1.350416986E0,1.237499993E-3,1.099999994E-3,-1.374999993E-4,1.661418812E-3
1.352405065E0,1.374999993E-4,1.099999994E-3,-1.374999993E-4,1.117055275E-3
1.354393065E0,1.374999993E-4,0.000000000E0,8.249999955E-4,8.363798434E-4
1.356381294E0,1.237499993E-3,0.000000000E0,8.249999955E-4,1.487289893E-3
1.358369353E0,2.199999988E-3,1.099999994E-3,-1.374999993E-4,2.463515006E-3
1.360357582E0,1.237499993E-3,1.099999994E-3,-1.237499993E-3,2.067078241E-3
1.362345661E0,1.374999993E-4,0.000000000E0,-1.374999993E-4,1.944543638E-4
1.364333890E0,1.374999993E-4,-1.099999994E-3,-1.374999993E-4,1.117055275E-3
1.366321969E0,1.374999993E-4,-1.099999994E-3,-1.374999993E-4,1.117055275E-3
1.368310197E0,1.374999993E-4,0.000000000E0,-1.374999993E-4,1.944543638E-4
1.370298185E0,1.374999993E-4,1.099999994E-3,-1.374999993E-4,1.117055275E-3
1.372286260E0,1.374999993E-4,1.099999994E-3,8.249999955E-4,1.381857890E-3
1.374274491E0,1.374999993E-4,1.099999994E-3,8.249999955E-4,1.381857890E-3
1.376262570E0,1.374999993E-4,0.000000000E0,-1.374999993E-4,1.944543638E-4
1.378250799E0,1.237499993E-3,-1.099999994E-3,-1.374999993E-4,1.661418812E-3
1.380238878E0,1.237499993E-3,-2.062499989E-3,-1.374999993E-4,2.409194614E-3
1.382226907E0,1.374999993E-4,0.000000000E0,-1.374999993E-4,1.944543638E-4
1.384215135E0,1.374999993E-4,0.000000000E0,-1.374999993E-4,1.944543638E-4
1.386203214E0,1.374999993E-4,1.099999994E-3,8.249999955E-4,1.381857890E-3
1.388191443E0,1.374999993E-4,1.099999994E-3,8.249999955E-4,1.381857890E-3
1.390179522E0,1.374999993E-4,0.000000000E0,-1.374999993E-4,1.944543638E-4
1.392167751E0,1.374999993E-4,0.000000000E0,-1.374999993E-4,1.944543638E-4
1.394155810E0,1.374999993E-4,-1.099999994E-3,-1.374999993E-4,1.117055275E-3
1.396144039E0,1.374999993E-4,-1.099999994E-3,-1.374999993E-4,1.117055275E-3
1.398132117E0,1.374999993E-4,1.099999994E-3,-1.374999993E-4,1.117055275E-3
1.400120117E0,1.374999993E-4,1.099999994E-3,-1.374999993E-4,1.117055275E-3
1.402108346E0,1.374999993E-4,0.000000000E0,8.249999955E-4,8.363798434E-4
1.404096425E0,1.374999993E-4,1.099999994E-3,1.924999990E-3,2.221380471E-3
1.406084635E0,1.374999993E-4,1.099999994E-3,8.249999955E-4,1.381857890E-3
1.408072714E0,1.237499993E-3,1.099999994E-3,8.249999955E-4,1.849873296E-3
1.410060943E0,1.374999993E-4,2.199999988E-3,-1.374999993E-4,2.208577019E-3
1.412048945E0,-9.624999948E-4,2.199999988E-3,-1.374999993E-4,2.405267644E-3
1.414037250E0,1.374999993E-4,0.000000000E0,8.249999955E-4,8.363798434E-4
1.416025281E0,1.374999993E-4,-1.099999994E-3,8.249999955E-4,1.381857890E-3
1.418013358E0,1.374999993E-4,0.000000000E0,-1.374999993E-4,1.944543638E-4
1.420001587E0,1.374999993E-4,1.099999994E-3,8.249999955E-4,1.381857890E-3
1.421989666E0,1.237499993E-3,1.099999994E-3,1.924999990E-3,2.539100467E-3
1.423977895E0,1.237499993E-3,0.000000000E0,1.924999990E-3,2.288456072E-3
1.425965974E0,1.237499993E-3,1.099999994E-3,-1.374999993E-4,1.661418812E-3
1.427953969E0,1.237499993E-3,1.099999994E-3,-1.374999993E-4,1.661418812E-3
1.429942197E0,1.374999993E-4,0.000000000E0,-1.374999993E-4,1.944543638E-4
1.431930276E0,1.374999993E-4,1.099999994E-3,-1.374999993E-4,1.117055275E-3
1.433918505E0,1.374999993E-4,1.099999994E-3,-1.374999993E-4,1.117055275E-3
1.435906584E0,1.374999993E-4,1.099999994E-3,8.249999955E-4,1.381857890E-3
1.437894813E0,1.237499993E-3,0.000000000E0,-1.374999993E-4,1.245115450E-3
1.439882883E0,2.199999988E-3,1.099999994E-3,-1.237499993E-3,2.753435339E-3
1.441871112E0,1.237499993E-3,2.199999988E-3,-1.237499993E-3,2.811194126E-3
1.443859190E0,1.374999993E-4,2.199999988E-3,-1.374999993E-4,2.208577019E-3
1.445847190E0,1.374999993E-4,1.099999994E-3,-1.374999993E-4,1.117055275E-3
1.447835419E0,1.374999993E-4,1.099999994E-3,8.249999955E-4,1.381857890E-3
1.449823498E0,1.374999993E-4,1.099999994E-3,8.249999955E-4,1.381857890E-3
1.451811712E0,1.237499993E-3,0.000000000E0,8.249999955E-4,1.487289893E-3
1.453799791E0,1.237499993E-3,0.000000000E0,-1.374999993E-4,1.245115450E-3
1.455788020E0,1.237499993E-3,-1.099999994E-3,-1.374999993E-4,1.661418812E-3
1.457776022E0,1.237499993E-3,-2.062499989E-3,8.249999955E-4,2.542820762E-3
1.459764097E0,1.237499993E-3,-2.062499989E-3,8.249999955E-4,2.542820762E-3
1.461752327E0,1.374999993E-4,-1.099999994E-3,1.924999990E-3,2.221380471E-3
1.463740421E0,1.374999993E-4,0.000000000E0,8.249999955E-4,8.363798434E-4
1.465728650E0,1.374999993E-4,-1.099999994E-3,-1.374999993E-4,1.117055275E-3
1.467716729E0,1.374999993E-4,-1.099999994E-3,-1.374999993E-4,1.117055275E-3
1.469704958E0,1.237499993E-3,0.000000000E0,8.249999955E-4,1.487289893E-3
1.471693037E0,1.237499993E-3,0.000000000E0,8.249999955E-4,1.487289893E-3
1.473681265E0,1.237499993E-3,-1.099999994E-3,-1.374999993E-4,1.661418812E-3
1.475669262E0,1.237499993E-3,-1.099999994E-3,8.249999955E-4,1.849873296E-3
1.477657337E0,1.237499993E-3,1.099999994E-3,-1.374999993E-4,1.661418812E-3
1.479645568E0,1.237499993E-3,2.199999988E-3,-1.237499993E-3,2.811194126E-3
1.481633647E0,1.237499993E-3,1.099999994E-3,-1.374999993E-4,1.661418812E-3
1.483621876E0,1.374999993E-4,0.000000000E0,8.249999955E-4,8.363798434E-4
1.485609955E0,1.374999993E-4,0.000000000E0,8.249999955E-4,8.363798434E-4
1.487598203E0,1.374999993E-4,-1.099999994E-3,8.249999955E-4,1.381857890E-3
1.489586282E0,1.237499993E-3,-2.062499989E-3,-1.374999993E-4,2.409194614E-3
1.491574282E0,1.237499993E-3,0.000000000E0,-1.374999993E-4,1.245115450E-3
1.493562510E0,1.374999993E-4,0.000000000E0,8.249999955E-4,8.363798434E-4
1.495550589E0,1.374999993E-4,0.000000000E0,8.249999955E-4,8.363798434E-4
1.497538818E0,1.237499993E-3,-1.099999994E-3,-1.374999993E-4,1.661418812E-3
1.499526897E0,1.374999993E-4,-1.099999994E-3,-1.374999993E-4,1.117055275E-3
1.501515126E0,-9.624999948E-4,-1.099999994E-3,-1.374999993E-4,1.468098252E-3
1.503503205E0,-9.624999948E-4,-1.099999994E-3,-1.374999993E-4,1.468098252E-3
1.505491205E0,1.374999993E-4,0.000000000E0,-1.374999993E-4,1.944543638E-4
1.507479433E0,1.237499993E-3,0.000000000E0,-1.374999993E-4,1.245115450E-3
1.509467512E0,1.374999993E-4,-1.099999994E-3,-1.374999993E-4,1.117055275E-3
1.511455760E0,1.374999993E-4,-1.099999994E-3,-1.374999993E-4,1.117055275E-3
1.513443839E0,1.374999993E-4,1.099999994E-3,-1.374999993E-4,1.117055275E-3
1.515432068E0,1.237499993E-3,1.099999994E-3,-1.374999993E-4,1.661418812E-3
1.517420147E0,1.237499993E-3,1.099999994E-3,-1.374999993E-4,1.661418812E-3
1.519408375E0,1.374999993E-4,1.099999994E-3,-1.374999993E-4,1.117055275E-3
1.521396454E0,1.374999993E-4,2.199999988E-3,-1.374999993E-4,2.208577019E-3
1.523384464E0,1.237499993E-3,2.199999988E-3,-1.374999993E-4,2.527906729E-3
1.525372693E0,1.237499993E-3,2.199999988E-3,-1.374999993E-4,2.527906729E-3
1.527360772E0,1.237499993E-3,2.199999988E-3,-1.374999993E-4,2.527906729E-3
1.529349001E0,2.199999988E-3,1.099999994E-3,-1.374999993E-4,2.463515006E-3
1.531337080E0,1.237499993E-3,1.099999994E-3,-1.374999993E-4,1.661418812E-3
1.533325309E0,1.374999993E-4,1.099999994E-3,8.249999955E-4,1.381857890E-3
1.535313397E0,1.374999993E-4,2.199999988E-3,8.249999955E-4,2.353620868E-3
1.537301397E0,1.374999993E-4,2.199999988E-3,8.249999955E-4,2.353620868E-3
1.539289625E0,1.237499993E-3,2.199999988E-3,8.249999955E-4,2.655566074E-3
1.541277704E0,2.199999988E-3,2.199999988E-3,-1.374999993E-4,3.114306688E-3
1.543265933E0,1.237499993E-3,2.199999988E-3,-1.374999993E-4,2.527906729E-3
1.545254012E0,1.374999993E-4,1.099999994E-3,-1.374999993E-4,1.117055275E-3
1.547242246E0,1.374999993E-4,0.000000000E0,-1.374999993E-4,1.944543638E-4
1.549230325E0,1.374999993E-4,-1.099999994E-3,8.249999955E-4,1.381857890E-3
1.551218325E0,1.374999993E-4,-1.099999994E-3,8.249999955E-4,1.381857890E-3
1.553206553E0,1.237499993E-3,0.000000000E0,8.249999955E-4,1.487289893E-3
1.555194632E0,1.237499993E-3,1.099999994E-3,-1.374999993E-4,1.661418812E-3
1.557182861E0,1.374999993E-4,1.099999994E-3,-1.374999993E-4,1.117055275E-3
1.559170954E0,1.374999993E-4,1.099999994E-3,-1.374999993E-4,1.117055275E-3
1.561159183E0,1.374999993E-4,1.099999994E-3,-1.374999993E-4,1.117055275E-3
1.563147262E0,1.374999993E-4,0.000000000E0,-1.374999993E-4,1.944543638E-4
1.565135491E0,1.374999993E-4,0.000000000E0,8.249999955E-4,8.363798434E-4
1.567123569E0,1.374999993E-4,1.099999994E-3,8.249999955E-4,1.381857890E-3
1.569111569E0,1.374999993E-4,0.000000000E0,8.249999955E-4,8.363798434E-4
1.571099803E0,1.374999993E-4,0.000000000E0,-1.374999993E-4,1.944543638E-4
1.573087882E0,1.374999993E-4,0.000000000E0,-1.374999993E-4,1.944543638E-4
1.575076111E0,1.374999993E-4,0.000000000E0,-1.374999993E-4,1.944543638E-4
1.577064190E0,1.237499993E-3,0.000000000E0,-1.374999993E-4,1.245115450E-3
1.579052419E0,1.237499993E-3,0.000000000E0,-1.374999993E-4,1.245115450E-3
1.581040498E0,1.237499993E-3,0.000000000E0,-1.374999993E-4,1.245115450E-3
1.583028518E0,1.374999993E-4,1.099999994E-3,-1.374999993E-4,1.117055275E-3
1.585016746E0,1.237499993E-3,1.099999994E-3,-1.374999993E-4,1.661418812E-3
1.587004825E0,1.237499993E-3,1.099999994E-3,-1.374999993E-4,1.661418812E-3
1.588993054E0,1.374999993E-4,0.000000000E0,8.249999955E-4,8.363798434E-4
1.590981133E0,1.374999993E-4,1.099999994E-3,8.249999955E-4,1.381857890E-3
1.592969362E0,1.374999993E-4,1.099999994E-3,-1.374999993E-4,1.117055275E-3
1.594957465E0,1.374999993E-4,0.000000000E0,-1.374999993E-4,1.944543638E-4
1.596945693E0,1.374999993E-4,1.099999994E-3,-1.374999993E-4,1.117055275E-3
1.598933772E0,1.237499993E-3,1.099999994E-3,-1.374999993E-4,1.661418812E-3
1.600921772E0,1.237499993E-3,1.099999994E-3,-1.374999993E-4,1.661418812E-3
1.602910001E0,1.237499993E-3,0.000000000E0,8.249999955E-4,1.487289893E-3
1.604898080E0,1.237499993E-3,0.000000000E0,8.249999955E-4,1.487289893E-3
1.606886245E0,1.237499993E-3,0.000000000E0,8.249999955E-4,1.487289893E-3
1.608874324E0,1.237499993E-3,0.000000000E0,-1.374999993E-4,1.245115450E-3
1.610862553E0,1.374999993E-4,0.000000000E0,-1.374999993E-4,1.944543638E-4
1.612850631E0,1.374999993E-4,0.000000000E0,8.249999955E-4,8.363798434E-4
1.614838860E0,1.374999993E-4,0.000000000E0,8.249999955E-4,8.363798434E-4
1.616826853E0,1.374999993E-4,1.099999994E-3,8.249999955E-4,1.381857890E-3
1.618814928E0,1.374999993E-4,1.099999994E-3,-1.374999993E-4,1.117055275E-3
1.620803159E0,1.237499993E-3,1.099999994E-3,-1.374999993E-4,1.661418812E-3
1.622791238E0,2.199999988E-3,1.099999994E-3,-1.237499993E-3,2.753435339E-3
1.624779467E0,1.237499993E-3,1.099999994E-3,-1.237499993E-3,2.067078241E-3
1.626767546E0,1.237499993E-3,1.099999994E-3,-1.237499993E-3,2.067078241E-3
1.628755783E0,1.374999993E-4,-1.099999994E-3,-1.374999993E-4,1.117055275E-3
1.630743785E0,1.374999993E-4,0.000000000E0,-1.374999993E-4,1.944543638E-4
1.632731860E0,1.374999993E-4,1.099999994E-3,-1.237499993E-3,1.661418812E-3
1.634720091E0,1.374999993E-4,2.199999988E-3,-1.237499993E-3,2.527906729E-3
1.636708170E0,-9.624999948E-4,1.099999994E-3,-1.237499993E-3,1.915153378E-3
1.638696399E0,1.374999993E-4,0.000000000E0,-1.374999993E-4,1.944543638E-4
1.640684493E0,1.374999993E-4,0.000000000E0,8.249999955E-4,8.363798434E-4
1.642672721E0,1.237499993E-3,1.099999994E-3,8.249999955E-4,1.849873296E-3
1.644660800E0,1.237499993E-3,1.099999994E-3,8.249999955E-4,1.849873296E-3
1.646649029E0,1.237499993E-3,0.000000000E0,8.249999955E-4,1.487289893E-3
1.648637031E0,1.374999993E-4,0.000000000E0,1.924999990E-3,1.929904456E-3
1.650625106E0,1.374999993E-4,0.000000000E0,8.249999955E-4,8.363798434E-4
1.652613322E0,1.374999993E-4,0.000000000E0,-1.374999993E-4,1.944543638E-4
1.654601401E0,1.374999993E-4,0.000000000E0,-1.374999993E-4,1.944543638E-4
1.656589630E0,1.374999993E-4,0.000000000E0,8.249999955E-4,8.363798434E-4
1.658577709E0,1.237499993E-3,0.000000000E0,8.249999955E-4,1.487289893E-3
1.660565937E0,1.237499993E-3,1.099999994E-3,8.249999955E-4,1.849873296E-3
1.662553939E0,1.237499993E-3,0.000000000E0,8.249999955E-4,1.487289893E-3
1.664542028E0,1.237499993E-3,0.000000000E0,8.249999955E-4,1.487289893E-3
1.666530259E0,1.237499993E-3,1.099999994E-3,-1.374999993E-4,1.661418812E-3
1.668518338E0,1.374999993E-4,1.099999994E-3,-1.374999993E-4,1.117055275E-3
1.670506567E0,-9.624999948E-4,-1.099999994E-3,8.249999955E-4,1.678401388E-3
1.672494646E0,1.237499993E-3,-1.099999994E-3,8.249999955E-4,1.849873296E-3
1.674482874E0,2.199999988E-3,0.000000000E0,-1.374999993E-4,2.204292675E-3
1.676470949E0,1.237499993E-3,0.000000000E0,-1.374999993E-4,1.245115450E-3
1.678459178E0,1.374999993E-4,0.000000000E0,8.249999955E-4,8.363798434E-4
1.680447180E0,1.374999993E-4,0.000000000E0,8.249999955E-4,8.363798434E-4
1.682435255E0,1.374999993E-4,0.000000000E0,8.249999955E-4,8.363798434E-4
1.684423486E0,1.374999993E-4,0.000000000E0,-1.374999993E-4,1.944543638E-4
1.686411565E0,1.374999993E-4,0.000000000E0,-1.374999993E-4,1.944543638E-4
1.688399789E0,1.237499993E-3,1.099999994E-3,-1.374999993E-4,1.661418812E-3
1.690387867E0,1.237499993E-3,1.099999994E-3,8.249999955E-4,1.849873296E-3
1.692376096E0,1.237499993E-3,1.099999994E-3,8.249999955E-4,1.849873296E-3
1.694364175E0,1.374999993E-4,0.000000000E0,-1.374999993E-4,1.944543638E-4
1.696352175E0,1.374999993E-4,1.099999994E-3,-1.237499993E-3,1.661418812E-3
1.698340404E0,1.237499993E-3,0.000000000E0,-1.374999993E-4,1.245115450E-3
1.700328478E0,2.199999988E-3,0.000000000E0,-1.374999993E-4,2.204292675E-3
1.702316707E0,1.237499993E-3,0.000000000E0,-1.374999993E-4,1.245115450E-3
1.704304786E0,1.237499993E-3,0.000000000E0,-1.374999993E-4,1.245115450E-3
1.706293014E0,1.374999993E-4,-1.099999994E-3,8.249999955E-4,1.381857890E-3
1.708281093E0,1.374999993E-4,0.000000000E0,-1.374999993E-4,1.944543638E-4
1.710269093E0,1.374999993E-4,0.000000000E0,-1.374999993E-4,1.944543638E-4
1.712257322E0,1.374999993E-4,-1.099999994E-3,8.249999955E-4,1.381857890E-3
1.714245401E0,1.374999993E-4,-1.099999994E-3,8.249999955E-4,1.381857890E-3
1.716233630E0,-9.624999948E-4,0.000000000E0,-1.374999993E-4,9.722718189E-4
1.718221709E0,1.374999993E-4,1.099999994E-3,-1.374999993E-4,1.117055275E-3
1.720209937E0,1.237499993E-3,1.099999994E-3,-1.374999993E-4,1.661418812E-3
1.722198016E0,1.237499993E-3,1.099999994E-3,-1.374999993E-4,1.661418812E-3
1.724186245E0,1.374999993E-4,0.000000000E0,-1.374999993E-4,1.944543638E-4
1.726174324E0,1.374999993E-4,0.000000000E0,-1.374999993E-4,1.944543638E-4
1.728162324E0,1.237499993E-3,1.099999994E-3,-1.374999993E-4,1.661418812E-3
1.730150553E0,1.374999993E-4,1.099999994E-3,8.249999955E-4,1.381857890E-3
1.732138632E0,1.374999993E-4,1.099999994E-3,-1.374999993E-4,1.117055275E-3
1.734126856E0,1.374999993E-4,0.000000000E0,-1.374999993E-4,1.944543638E-4
1.736114934E0,1.374999993E-4,1.099999994E-3,-1.374999993E-4,1.117055275E-3
1.738103163E0,1.374999993E-4,1.099999994E-3,-1.374999993E-4,1.117055275E-3
1.740091242E0,1.374999993E-4,-1.099999994E-3,-1.374999993E-4,1.117055275E-3
1.742079242E0,1.374999993E-4,-2.062499989E-3,8.249999955E-4,2.225631921E-3
1.744067471E0,1.237499993E-3,-1.099999994E-3,-1.374999993E-4,1.661418812E-3
1.746055545E0,1.237499993E-3,1.099999994E-3,-1.374999993E-4,1.661418812E-3
1.748043774E0,1.374999993E-4,1.099999994E-3,8.249999955E-4,1.381857890E-3
1.750031853E0,1.374999993E-4,0.000000000E0,8.249999955E-4,8.363798434E-4
1.752020081E0,1.237499993E-3,-1.099999994E-3,-1.374999993E-4,1.661418812E-3
1.754008160E0,1.237499993E-3,-1.099999994E-3,-1.374999993E-4,1.661418812E-3
1.755996389E0,1.237499993E-3,0.000000000E0,-1.374999993E-4,1.245115450E-3
1.757984449E0,1.374999993E-4,0.000000000E0,8.249999955E-4,8.363798434E-4
1.759972678E0,-9.624999948E-4,-1.099999994E-3,8.249999955E-4,1.678401388E-3
1.761960680E0,1.374999993E-4,-1.099999994E-3,8.249999955E-4,1.381857890E-3
1.763948755E0,1.237499993E-3,-1.099999994E-3,8.249999955E-4,1.849873296E-3
1.765936985E0,1.237499993E-3,-1.099999994E-3,8.249999955E-4,1.849873296E-3
1.767925064E0,1.374999993E-4,-1.099999994E-3,-1.374999993E-4,1.117055275E-3
1.769913288E0,-9.624999948E-4,-1.099999994E-3,-1.374999993E-4,1.468098252E-3
1.771901367E0,1.374999993E-4,-1.099999994E-3,8.249999955E-4,1.381857890E-3
1.773889596E0,1.237499993E-3,0.000000000E0,8.249999955E-4,1.487289893E-3
1.775877598E0,1.237499993E-3,0.000000000E0,8.249999955E-4,1.487289893E-3
1.777865673E0,1.374999993E-4,0.000000000E0,8.249999955E-4,8.363798434E-4
1.779853904E0,1.374999993E-4,0.000000000E0,-1.374999993E-4,1.944543638E-4
1.781841988E0,1.374999993E-4,0.000000000E0,8.249999955E-4,8.363798434E-4
1.783830216E0,1.374999993E-4,0.000000000E0,-1.374999993E-4,1.944543638E-4
1.785818295E0,1.374999993E-4,1.099999994E-3,-1.237499993E-3,1.661418812E-3
1.787806524E0,1.374999993E-4,1.099999994E-3,-1.237499993E-3,1.661418812E-3
1.789794603E0,1.374999993E-4,0.000000000E0,-1.374999993E-4,1.944543638E-4
1.791782603E0,1.237499993E-3,0.000000000E0,-1.374999993E-4,1.245115450E-3
1.793770861E0,1.237499993E-3,0.000000000E0,-1.374999993E-4,1.245115450E-3
1.795758940E0,1.374999993E-4,0.000000000E0,-1.374999993E-4,1.944543638E-4
1.797747168E0,1.374999993E-4,-1.099999994E-3,-1.374999993E-4,1.117055275E-3
1.799735247E0,1.374999993E-4,0.000000000E0,-1.374999993E-4,1.944543638E-4
1.801723476E0,1.374999993E-4,0.000000000E0,8.249999955E-4,8.363798434E-4
1.803711555E0,1.374999993E-4,0.000000000E0,-1.374999993E-4,1.944543638E-4
1.805699779E0,1.374999993E-4,-1.099999994E-3,-1.237499993E-3,1.661418812E-3
1.807687781E0,1.374999993E-4,-1.099999994E-3,-1.374999993E-4,1.117055275E-3
1.809676086E0,1.374999993E-4,0.000000000E0,8.249999955E-4,8.363798434E-4
1.811664165E0,1.374999993E-4,-1.099999994E-3,8.249999955E-4,1.381857890E-3
1.813652165E0,1.237499993E-3,-1.099999994E-3,-1.374999993E-4,1.661418812E-3
1.815640394E0,1.237499993E-3,0.000000000E0,-1.374999993E-4,1.245115450E-3
1.817628473E0,1.374999993E-4,0.000000000E0,-1.374999993E-4,1.944543638E-4
1.819616702E0,1.374999993E-4,0.000000000E0,-1.374999993E-4,1.944543638E-4
1.821604781E0,-9.624999948E-4,0.000000000E0,8.249999955E-4,1.267687356E-3
1.823592781E0,-9.624999948E-4,-1.099999994E-3,8.249999955E-4,1.678401388E-3
1.825581010E0,1.374999993E-4,-1.099999994E-3,-1.374999993E-4,1.117055275E-3
1.827569065E0,2.199999988E-3,-1.099999994E-3,-1.374999993E-4,2.463515006E-3
1.829557293E0,2.199999988E-3,-1.099999994E-3,-1.374999993E-4,2.463515006E-3
1.831545372E0,1.374999993E-4,0.000000000E0,-1.374999993E-4,1.944543638E-4
1.833533601E0,1.374999993E-4,0.000000000E0,-1.374999993E-4,1.944543638E-4
1.835521680E0,1.237499993E-3,0.000000000E0,-1.374999993E-4,1.245115450E-3
1.837509909E0,1.237499993E-3,0.000000000E0,-1.374999993E-4,1.245115450E-3
1.839497993E0,1.374999993E-4,0.000000000E0,-1.374999993E-4,1.944543638E-4
1.841486221E0,1.374999993E-4,0.000000000E0,-1.374999993E-4,1.944543638E-4
1.843474223E0,1.374999993E-4,0.000000000E0,-1.374999993E-4,1.944543638E-4
1.845462298E0,1.237499993E-3,1.099999994E-3,-1.374999993E-4,1.661418812E-3
1.847450529E0,1.237499993E-3,0.000000000E0,8.249999955E-4,1.487289893E-3
1.849438608E0,1.237499993E-3,0.000000000E0,8.249999955E-4,1.487289893E-3
1.851426832E0,1.237499993E-3,0.000000000E0,8.249999955E-4,1.487289893E-3
1.853414911E0,1.237499993E-3,0.000000000E0,8.249999955E-4,1.487289893E-3
1.855402911E0,1.237499993E-3,1.099999994E-3,8.249999955E-4,1.849873296E-3
1.857391140E0,1.374999993E-4,1.099999994E-3,-1.374999993E-4,1.117055275E-3
1.859379218E0,1.374999993E-4,-1.099999994E-3,-1.374999993E-4,1.117055275E-3
1.861367524E0,1.374999993E-4,-1.099999994E-3,-1.374999993E-4,1.117055275E-3
1.863355526E0,1.374999993E-4,0.000000000E0,-1.374999993E-4,1.944543638E-4
1.865343755E0,1.374999993E-4,0.000000000E0,8.249999955E-4,8.363798434E-4
1.867331834E0,1.374999993E-4,0.000000000E0,-1.374999993E-4,1.944543638E-4
1.869320063E0,1.374999993E-4,1.099999994E-3,-1.374999993E-4,1.117055275E-3
1.871308142E0,1.237499993E-3,1.099999994E-3,8.249999955E-4,1.849873296E-3
1.873296370E0,1.237499993E-3,0.000000000E0,8.249999955E-4,1.487289893E-3
1.875284348E0,1.237499993E-3,0.000000000E0,-1.374999993E-4,1.245115450E-3
1.877272423E0,1.374999993E-4,1.099999994E-3,-1.374999993E-4,1.117055275E-3
1.879260654E0,1.374999993E-4,0.000000000E0,8.249999955E-4,8.363798434E-4
1.881248733E0,1.374999993E-4,0.000000000E0,8.249999955E-4,8.363798434E-4
1.883236962E0,1.374999993E-4,0.000000000E0,8.249999955E-4,8.363798434E-4
1.885225041E0,1.374999993E-4,0.000000000E0,-1.374999993E-4,1.944543638E-4
1.887213056E0,1.237499993E-3,0.000000000E0,-1.374999993E-4,1.245115450E-3
1.889201361E0,1.237499993E-3,-1.099999994E-3,8.249999955E-4,1.849873296E-3
1.891189592E0,1.374999993E-4,-1.099999994E-3,8.249999955E-4,1.381857890E-3
1.893177671E0,1.374999993E-4,0.000000000E0,8.249999955E-4,8.363798434E-4
1.895165671E0,1.374999993E-4,0.000000000E0,-1.237499993E-3,1.245115450E-3
1.897153900E0,1.374999993E-4,0.000000000E0,-1.237499993E-3,1.245115450E-3
1.899141955E0,1.374999993E-4,0.000000000E0,8.249999955E-4,8.363798434E-4
1.901130184E0,1.237499993E-3,1.099999994E-3,8.249999955E-4,1.849873296E-3
1.903118262E0,1.237499993E-3,1.099999994E-3,8.249999955E-4,1.849873296E-3
1.905106491E0,1.374999993E-4,2.199999988E-3,8.249999955E-4,2.353620868E-3
1.907094493E0,1.237499993E-3,1.099999994E-3,8.249999955E-4,1.849873296E-3
1.909082568E0,1.237499993E-3,-1.099999994E-3,-1.374999993E-4,1.661418812E-3
1.911070823E0,1.237499993E-3,0.000000000E0,-1.374999993E-4,1.245115450E-3
1.913058902E0,1.374999993E-4,1.099999994E-3,-1.374999993E-4,1.117055275E-3
1.915047131E0,1.237499993E-3,1.099999994E-3,-1.374999993E-4,1.661418812E-3
1.917035210E0,1.237499993E-3,1.099999994E-3,-1.374999993E-4,1.661418812E-3
1.919023438E0,1.374999993E-4,1.099999994E-3,-1.374999993E-4,1.117055275E-3
1.921011517E0,1.374999993E-4,0.000000000E0,-1.374999993E-4,1.944543638E-4
1.922999765E0,1.374999993E-4,0.000000000E0,-1.374999993E-4,1.944543638E-4
1.924987767E0,1.374999993E-4,0.000000000E0,-1.374999993E-4,1.944543638E-4
1.926976073E0,1.237499993E-3,0.000000000E0,-1.374999993E-4,1.245115450E-3
1.928964152E0,1.237499993E-3,0.000000000E0,-1.374999993E-4,1.245115450E-3
1.930952152E0,1.374999993E-4,0.000000000E0,-1.374999993E-4,1.944543638E-4
1.932940380E0,1.237499993E-3,-1.099999994E-3,8.249999955E-4,1.849873296E-3
1.934928459E0,1.237499993E-3,-1.099999994E-3,-1.374999993E-4,1.661418812E-3
1.936916688E0,1.237499993E-3,-1.099999994E-3,-1.374999993E-4,1.661418812E-3
1.938904690E0,1.237499993E-3,0.000000000E0,-1.374999993E-4,1.245115450E-3
1.940892996E0,1.237499993E-3,1.099999994E-3,8.249999955E-4,1.849873296E-3
1.942880998E0,1.374999993E-4,1.099999994E-3,8.249999955E-4,1.381857890E-3
1.944869075E0,1.374999993E-4,1.099999994E-3,-1.374999993E-4,1.117055275E-3
1.946857289E0,1.374999993E-4,1.099999994E-3,-1.374999993E-4,1.117055275E-3
1.948845368E0,1.374999993E-4,0.000000000E0,-1.374999993E-4,1.944543638E-4
1.950833596E0,1.237499993E-3,0.000000000E0,-1.237499993E-3,1.750089274E-3
1.952821675E0,1.237499993E-3,0.000000000E0,-1.237499993E-3,1.750089274E-3
1.954809904E0,2.199999988E-3,0.000000000E0,-1.374999993E-4,2.204292675E-3
1.956797983E0,1.237499993E-3,0.000000000E0,8.249999955E-4,1.487289893E-3
1.958786212E0,1.237499993E-3,0.000000000E0,-1.374999993E-4,1.245115450E-3
1.960774291E0,1.374999993E-4,-1.099999994E-3,-1.374999993E-4,1.117055275E-3
1.962762291E0,1.374999993E-4,-1.099999994E-3,-1.374999993E-4,1.117055275E-3
1.964750519E0,1.237499993E-3,0.000000000E0,8.249999955E-4,1.487289893E-3
1.966738598E0,1.237499993E-3,0.000000000E0,8.249999955E-4,1.487289893E-3
1.968726827E0,1.374999993E-4,0.000000000E0,8.249999955E-4,8.363798434E-4
1.970714906E0,1.237499993E-3,1.099999994E-3,-1.374999993E-4,1.661418812E-3
1.972703135E0,1.237499993E-3,1.099999994E-3,-1.374999993E-4,1.661418812E-3
1.974691137E0,1.374999993E-4,0.000000000E0,8.249999955E-4,8.363798434E-4
1.976679212E0,1.374999993E-4,-1.099999994E-3,8.249999955E-4,1.381857890E-3
1.978667519E0,1.237499993E-3,-1.099999994E-3,8.249999955E-4,1.849873296E-3
1.980655521E0,1.237499993E-3,0.000000000E0,-1.374999993E-4,1.245115450E-3
1.982643740E0,1.374999993E-4,0.000000000E0,-1.237499993E-3,1.245115450E-3
1.984631819E0,1.374999993E-4,0.000000000E0,-1.374999993E-4,1.944543638E-4
1.986620048E0,1.374999993E-4,0.000000000E0,-1.374999993E-4,1.944543638E-4
1.988608127E0,-9.624999948E-4,0.000000000E0,-1.374999993E-4,9.722718189E-4
1.990596356E0,1.374999993E-4,0.000000000E0,-1.374999993E-4,1.944543638E-4
1.992584435E0,1.237499993E-3,0.000000000E0,-1.374999993E-4,1.245115450E-3
1.994572449E0,1.237499993E-3,0.000000000E0,-1.374999993E-4,1.245115450E-3
1.996560677E0,1.237499993E-3,0.000000000E0,8.249999955E-4,1.487289893E-3
1.998548756E0,1.237499993E-3,-1.099999994E-3,8.249999955E-4,1.849873296E-3
2.000536985E0,1.374999993E-4,-1.099999994E-3,8.249999955E-4,1.381857890E-3
2.002525064E0,1.374999993E-4,-2.062499989E-3,1.924999990E-3,2.824612790E-3
2.004513293E0,1.237499993E-3,-1.099999994E-3,8.249999955E-4,1.849873296E-3
2.006501406E0,1.237499993E-3,0.000000000E0,-1.374999993E-4,1.245115450E-3
2.008489634E0,1.237499993E-3,0.000000000E0,-1.374999993E-4,1.245115450E-3
2.010477713E0,1.237499993E-3,-1.099999994E-3,-1.374999993E-4,1.661418812E-3
2.012465713E0,1.237499993E-3,0.000000000E0,-1.374999993E-4,1.245115450E-3
2.014453942E0,1.237499993E-3,1.099999994E-3,-1.374999993E-4,1.661418812E-3
2.016442055E0,1.237499993E-3,0.000000000E0,8.249999955E-4,1.487289893E-3
2.018430284E0,1.374999993E-4,-1.099999994E-3,8.249999955E-4,1.381857890E-3
2.020418363E0,1.374999993E-4,0.000000000E0,-1.374999993E-4,1.944543638E-4
2.022406592E0,1.374999993E-4,1.099999994E-3,8.249999955E-4,1.381857890E-3
2.024394670E0,1.374999993E-4,0.000000000E0,8.249999955E-4,8.363798434E-4
2.026382899E0,1.374999993E-4,0.000000000E0,8.249999955E-4,8.363798434E-4
2.028370910E0,1.374999993E-4,0.000000000E0,-1.374999993E-4,1.944543638E-4
2.030358985E0,1.374999993E-4,1.099999994E-3,8.249999955E-4,1.381857890E-3
2.032347216E0,1.374999993E-4,1.099999994E-3,8.249999955E-4,1.381857890E-3
2.034335295E0,1.237499993E-3,0.000000000E0,-1.374999993E-4,1.245115450E-3
2.036323524E0,1.374999993E-4,0.000000000E0,-1.374999993E-4,1.944543638E-4
2.038311603E0,1.237499993E-3,1.099999994E-3,-1.374999993E-4,1.661418812E-3
2.040299836E0,1.237499993E-3,1.099999994E-3,-1.374999993E-4,1.661418812E-3
2.042287915E0,1.374999993E-4,1.099999994E-3,-1.374999993E-4,1.117055275E-3
2.044276144E0,1.374999993E-4,1.099999994E-3,-1.374999993E-4,1.117055275E-3
2.046264146E0,1.237499993E-3,1.099999994E-3,-1.374999993E-4,1.661418812E-3
2.048252452E0,1.374999993E-4,1.099999994E-3,-1.374999993E-4,1.117055275E-3
2.050240454E0,-2.062499989E-3,0.000000000E0,-1.374999993E-4,2.067078241E-3
2.052228531E0,-2.062499989E-3,0.000000000E0,-1.374999993E-4,2.067078241E-3
2.054216759E0,1.374999993E-4,1.099999994E-3,-1.374999993E-4,1.117055275E-3
2.056204838E0,1.237499993E-3,1.099999994E-3,8.249999955E-4,1.849873296E-3
2.058193067E0,1.237499993E-3,2.199999988E-3,8.249999955E-4,2.655566074E-3
2.060181069E0,1.374999993E-4,0.000000000E0,8.249999955E-4,8.363798434E-4
2.062169144E0,1.237499993E-3,-1.099999994E-3,8.249999955E-4,1.849873296E-3
2.064157389E0,2.199999988E-3,-1.099999994E-3,-1.374999993E-4,2.463515006E-3
2.066145697E0,1.237499993E-3,1.099999994E-3,-1.374999993E-4,1.661418812E-3
2.068133699E0,1.237499993E-3,1.099999994E-3,-1.374999993E-4,1.661418812E-3
2.070121776E0,1.374999993E-4,1.099999994E-3,-1.374999993E-4,1.117055275E-3
2.072110004E0,1.374999993E-4,0.000000000E0,-1.374999993E-4,1.944543638E-4
2.074098083E0,1.237499993E-3,0.000000000E0,8.249999955E-4,1.487289893E-3
2.076086312E0,1.237499993E-3,0.000000000E0,8.249999955E-4,1.487289893E-3
2.078074391E0,1.374999993E-4,0.000000000E0,8.249999955E-4,8.363798434E-4
2.080062620E0,1.237499993E-3,0.000000000E0,-1.374999993E-4,1.245115450E-3
2.082050699E0,1.237499993E-3,1.099999994E-3,-1.374999993E-4,1.661418812E-3
2.084038699E0,1.237499993E-3,1.099999994E-3,8.249999955E-4,1.849873296E-3
2.086026927E0,1.374999993E-4,1.099999994E-3,8.249999955E-4,1.381857890E-3
2.088015030E0,1.237499993E-3,1.099999994E-3,8.249999955E-4,1.849873296E-3
2.090003259E0,1.237499993E-3,0.000000000E0,8.249999955E-4,1.487289893E-3
2.091991338E0,1.237499993E-3,0.000000000E0,-1.374999993E-4,1.245115450E-3
2.093979338E0,1.237499993E-3,0.000000000E0,-1.374999993E-4,1.245115450E-3
2.095967644E0,1.237499993E-3,0.000000000E0,-1.374999993E-4,1.245115450E-3
2.097955646E0,1.374999993E-4,0.000000000E0,-1.374999993E-4,1.944543638E-4
2.099943923E0,1.374999993E-4,0.000000000E0,-1.374999993E-4,1.944543638E-4
2.101931925E0,-9.624999948E-4,0.000000000E0,-1.374999993E-4,9.722718189E-4
2.103920154E0,-9.624999948E-4,1.099999994E-3,-1.374999993E-4,1.468098252E-3
2.105908233E0,1.374999993E-4,1.099999994E-3,-1.237499993E-3,1.661418812E-3
2.107896462E0,1.374999993E-4,1.099999994E-3,-1.374999993E-4,1.117055275E-3
2.109884541E0,1.237499993E-3,0.000000000E0,8.249999955E-4,1.487289893E-3
2.111872765E0,1.237499993E-3,0.000000000E0,8.249999955E-4,1.487289893E-3
2.113860844E0,1.237499993E-3,0.000000000E0,8.249999955E-4,1.487289893E-3
2.115849072E0,1.237499993E-3,0.000000000E0,-1.374999993E-4,1.245115450E-3
2.117837074E0,1.237499993E-3,1.099999994E-3,-1.237499993E-3,2.067078241E-3
2.119825149E0,1.237499993E-3,0.000000000E0,-1.374999993E-4,1.245115450E-3
2.121813380E0,1.374999993E-4,-1.099999994E-3,8.249999955E-4,1.381857890E-3
2.123801444E0,1.374999993E-4,0.000000000E0,-1.374999993E-4,1.944543638E-4
2.125789673E0,1.374999993E-4,0.000000000E0,8.249999955E-4,8.363798434E-4
2.127777752E0,1.374999993E-4,0.000000000E0,8.249999955E-4,8.363798434E-4
2.129765980E0,1.374999993E-4,0.000000000E0,1.924999990E-3,1.929904456E-3
2.131754059E0,1.374999993E-4,0.000000000E0,8.249999955E-4,8.363798434E-4
2.133742059E0,1.374999993E-4,-1.099999994E-3,8.249999955E-4,1.381857890E-3
2.135730385E0,1.237499993E-3,-1.099999994E-3,-1.374999993E-4,1.661418812E-3
2.137718616E0,1.237499993E-3,0.000000000E0,8.249999955E-4,1.487289893E-3
2.139706618E0,2.199999988E-3,0.000000000E0,8.249999955E-4,2.349601017E-3
2.141694695E0,2.199999988E-3,1.099999994E-3,-1.374999993E-4,2.463515006E-3
2.143682924E0,1.374999993E-4,1.099999994E-3,-1.374999993E-4,1.117055275E-3
2.145671002E0,1.374999993E-4,0.000000000E0,-1.374999993E-4,1.944543638E-4
2.147659221E0,1.374999993E-4,0.000000000E0,-1.374999993E-4,1.944543638E-4
2.149647300E0,1.237499993E-3,0.000000000E0,-1.374999993E-4,1.245115450E-3
2.151635529E0,1.374999993E-4,1.099999994E-3,-1.374999993E-4,1.117055275E-3
2.153623531E0,1.374999993E-4,0.000000000E0,8.249999955E-4,8.363798434E-4
2.155611606E0,1.374999993E-4,0.000000000E0,8.249999955E-4,8.363798434E-4
2.157599837E0,1.374999993E-4,1.099999994E-3,8.249999955E-4,1.381857890E-3
2.159587906E0,1.374999993E-4,1.099999994E-3,8.249999955E-4,1.381857890E-3
2.161576134E0,-9.624999948E-4,1.099999994E-3,8.249999955E-4,1.678401388E-3
2.163564213E0,-9.624999948E-4,1.099999994E-3,-1.374999993E-4,1.468098252E-3
2.165552442E0,1.374999993E-4,1.099999994E-3,-1.374999993E-4,1.117055275E-3
2.167540521E0,1.237499993E-3,2.199999988E-3,8.249999955E-4,2.655566074E-3
2.169528750E0,1.237499993E-3,2.199999988E-3,8.249999955E-4,2.655566074E-3
2.171516763E0,1.374999993E-4,1.099999994E-3,-1.374999993E-4,1.117055275E-3
2.173504838E0,1.374999993E-4,1.099999994E-3,-1.237499993E-3,1.661418812E-3
2.175493068E0,1.374999993E-4,1.099999994E-3,-1.374999993E-4,1.117055275E-3
2.177481147E0,1.374999993E-4,0.000000000E0,-1.374999993E-4,1.944543638E-4
2.179469376E0,1.374999993E-4,0.000000000E0,-1.374999993E-4,1.944543638E-4
2.181457455E0,1.237499993E-3,1.099999994E-3,-1.374999993E-4,1.661418812E-3
2.183445669E0,1.374999993E-4,2.199999988E-3,-1.374999993E-4,2.208577019E-3
2.185433748E0,-9.624999948E-4,2.199999988E-3,-1.374999993E-4,2.405267644E-3
2.187421748E0,1.374999993E-4,1.099999994E-3,-1.374999993E-4,1.117055275E-3
2.189409977E0,1.237499993E-3,1.099999994E-3,-1.374999993E-4,1.661418812E-3
2.191398055E0,1.374999993E-4,0.000000000E0,-1.374999993E-4,1.944543638E-4
2.193386284E0,1.374999993E-4,0.000000000E0,-1.374999993E-4,1.944543638E-4
2.195374330E0,1.374999993E-4,0.000000000E0,-1.374999993E-4,1.944543638E-4
2.197362559E0,1.374999993E-4,1.099999994E-3,8.249999955E-4,1.381857890E-3
2.199350638E0,1.374999993E-4,1.099999994E-3,8.249999955E-4,1.381857890E-3
2.201338867E0,1.374999993E-4,0.000000000E0,-1.374999993E-4,1.944543638E-4
2.203326869E0,-9.624999948E-4,0.000000000E0,8.249999955E-4,1.267687356E-3
2.205315174E0,1.374999993E-4,1.099999994E-3,-1.374999993E-4,1.117055275E-3
2.207303228E0,1.237499993E-3,0.000000000E0,-1.374999993E-4,1.245115450E-3
2.209291457E0,1.237499993E-3,-1.099999994E-3,-1.374999993E-4,1.661418812E-3
2.211279459E0,1.374999993E-4,-1.099999994E-3,-1.374999993E-4,1.117055275E-3
2.213267534E0,-9.624999948E-4,1.099999994E-3,-1.374999993E-4,1.468098252E-3
2.215255765E0,1.374999993E-4,1.099999994E-3,-1.374999993E-4,1.117055275E-3
2.217243830E0,1.237499993E-3,1.099999994E-3,-1.374999993E-4,1.661418812E-3
2.219232058E0,1.237499993E-3,0.000000000E0,8.249999955E-4,1.487289893E-3
2.221220137E0,1.374999993E-4,0.000000000E0,8.249999955E-4,8.363798434E-4
2.223208137E0,1.374999993E-4,1.099999994E-3,-1.374999993E-4,1.117055275E-3
2.225196443E0,1.237499993E-3,1.099999994E-3,-1.374999993E-4,1.661418812E-3
2.227184445E0,1.374999993E-4,-1.099999994E-3,8.249999955E-4,1.381857890E-3
2.229172669E0,1.374999993E-4,0.000000000E0,8.249999955E-4,8.363798434E-4
2.231160748E0,1.374999993E-4,1.099999994E-3,8.249999955E-4,1.381857890E-3
2.233148977E0,1.237499993E-3,0.000000000E0,8.249999955E-4,1.487289893E-3
2.235137056E0,2.199999988E-3,1.099999994E-3,8.249999955E-4,2.594344797E-3
2.237125284E0,2.199999988E-3,1.099999994E-3,-1.374999993E-4,2.463515006E-3
2.239113363E0,1.237499993E-3,1.099999994E-3,-1.374999993E-4,1.661418812E-3
2.241101578E0,1.237499993E-3,1.099999994E-3,-1.374999993E-4,1.661418812E-3
2.243089657E0,1.237499993E-3,1.099999994E-3,-1.374999993E-4,1.661418812E-3
2.245077886E0,1.374999993E-4,2.199999988E-3,-1.374999993E-4,2.208577019E-3
2.247065888E0,-9.624999948E-4,2.199999988E-3,-1.374999993E-4,2.405267644E-3
2.249053963E0,-9.624999948E-4,1.099999994E-3,-1.374999993E-4,1.468098252E-3
2.251042193E0,1.374999993E-4,0.000000000E0,-1.374999993E-4,1.944543638E-4
2.253030257E0,1.374999993E-4,0.000000000E0,8.249999955E-4,8.363798434E-4
2.255018486E0,1.374999993E-4,0.000000000E0,8.249999955E-4,8.363798434E-4
2.257006565E0,1.237499993E-3,0.000000000E0,8.249999955E-4,1.487289893E-3
2.258994794E0,1.237499993E-3,0.000000000E0,8.249999955E-4,1.487289893E-3
2.260982796E0,1.374999993E-4,0.000000000E0,-1.374999993E-4,1.944543638E-4
2.262970871E0,1.374999993E-4,0.000000000E0,-1.374999993E-4,1.944543638E-4
2.264959102E0,1.237499993E-3,0.000000000E0,-1.374999993E-4,1.245115450E-3
2.266947180E0,1.237499993E-3,0.000000000E0,-1.374999993E-4,1.245115450E-3
2.268935409E0,1.237499993E-3,0.000000000E0,-1.374999993E-4,1.245115450E-3
2.270923488E0,1.374999993E-4,0.000000000E0,-1.374999993E-4,1.944543638E-4
2.272911717E0,1.374999993E-4,0.000000000E0,-1.374999993E-4,1.944543638E-4
2.274899796E0,1.374999993E-4,0.000000000E0,-1.374999993E-4,1.944543638E-4
2.276888016E0,1.237499993E-3,0.000000000E0,8.249999955E-4,1.487289893E-3
2.278876095E0,1.237499993E-3,1.099999994E-3,8.249999955E-4,1.849873296E-3
2.280864323E0,1.237499993E-3,1.099999994E-3,8.249999955E-4,1.849873296E-3
2.282852325E0,1.374999993E-4,1.099999994E-3,8.249999955E-4,1.381857890E-3
2.284840400E0,1.374999993E-4,0.000000000E0,-1.374999993E-4,1.944543638E-4
2.286828631E0,1.237499993E-3,-1.099999994E-3,-1.374999993E-4,1.661418812E-3
2.288816705E0,1.237499993E-3,-1.099999994E-3,-1.374999993E-4,1.661418812E-3
2.290804934E0,1.237499993E-3,0.000000000E0,-1.237499993E-3,1.750089274E-3
2.292793013E0,1.374999993E-4,0.000000000E0,-1.237499993E-3,1.245115450E-3
2.294781241E0,1.374999993E-4,0.000000000E0,-1.374999993E-4,1.944543638E-4
2.296769243E0,1.237499993E-3,1.099999994E-3,8.249999955E-4,1.849873296E-3
2.298757549E0,1.237499993E-3,1.099999994E-3,8.249999955E-4,1.849873296E-3
2.300745555E0,1.237499993E-3,-1.099999994E-3,8.249999955E-4,1.849873296E-3
2.302733632E0,1.237499993E-3,-1.099999994E-3,8.249999955E-4,1.849873296E-3
2.304721938E0,1.237499993E-3,0.000000000E0,8.249999955E-4,1.487289893E-3
2.306709940E0,1.374999993E-4,1.099999994E-3,8.249999955E-4,1.381857890E-3
2.308698169E0,1.374999993E-4,1.099999994E-3,8.249999955E-4,1.381857890E-3
2.310686247E0,1.374999993E-4,1.099999994E-3,8.249999955E-4,1.381857890E-3
2.312674481E0,1.374999993E-4,0.000000000E0,8.249999955E-4,8.363798434E-4
2.314662560E0,1.374999993E-4,0.000000000E0,-1.374999993E-4,1.944543638E-4
2.316650789E0,1.374999993E-4,0.000000000E0,-1.374999993E-4,1.944543638E-4
2.318638791E0,1.237499993E-3,0.000000000E0,-1.374999993E-4,1.245115450E-3
2.320626866E0,1.237499993E-3,1.099999994E-3,-1.374999993E-4,1.661418812E-3
2.322615097E0,1.237499993E-3,0.000000000E0,8.249999955E-4,1.487289893E-3
2.324603176E0,1.374999993E-4,0.000000000E0,-1.374999993E-4,1.944543638E-4
2.326591404E0,1.374999993E-4,0.000000000E0,-1.374999993E-4,1.944543638E-4
2.328579483E0,1.374999993E-4,1.099999994E-3,8.249999955E-4,1.381857890E-3
2.330567483E0,1.374999993E-4,0.000000000E0,8.249999955E-4,8.363798434E-4
2.332555712E0,1.374999993E-4,0.000000000E0,8.249999955E-4,8.363798434E-4
2.334544020E0,1.374999993E-4,1.099999994E-3,-1.374999993E-4,1.117055275E-3
2.336532099E0,1.374999993E-4,0.000000000E0,-1.374999993E-4,1.944543638E-4
2.338520099E0,1.374999993E-4,0.000000000E0,-1.374999993E-4,1.944543638E-4
2.340508327E0,1.374999993E-4,0.000000000E0,-1.374999993E-4,1.944543638E-4
2.342496406E0,1.237499993E-3,0.000000000E0,-1.374999993E-4,1.245115450E-3
2.344484635E0,1.237499993E-3,-1.099999994E-3,-1.374999993E-4,1.661418812E-3
2.346472709E0,1.374999993E-4,0.000000000E0,8.249999955E-4,8.363798434E-4
2.348460938E0,1.374999993E-4,1.099999994E-3,-1.374999993E-4,1.117055275E-3
2.350449017E0,1.374999993E-4,2.199999988E-3,-1.374999993E-4,2.208577019E-3
2.352437246E0,1.374999993E-4,2.199999988E-3,-1.374999993E-4,2.208577019E-3
2.354425324E0,1.374999993E-4,1.099999994E-3,-1.374999993E-4,1.117055275E-3
2.356413324E0,1.374999993E-4,0.000000000E0,-1.374999993E-4,1.944543638E-4
2.358401553E0,1.374999993E-4,0.000000000E0,-1.374999993E-4,1.944543638E-4
2.360389632E0,1.374999993E-4,0.000000000E0,-1.374999993E-4,1.944543638E-4
2.362377861E0,1.374999993E-4,-1.099999994E-3,8.249999955E-4,1.381857890E-3
2.364365940E0,1.237499993E-3,0.000000000E0,8.249999955E-4,1.487289893E-3
2.366354169E0,1.237499993E-3,1.099999994E-3,-1.374999993E-4,1.661418812E-3
2.368342248E0,1.374999993E-4,1.099999994E-3,-1.237499993E-3,1.661418812E-3
2.370330481E0,1.374999993E-4,0.000000000E0,8.249999955E-4,8.363798434E-4
2.372318483E0,1.237499993E-3,-1.099999994E-3,1.924999990E-3,2.539100467E-3
2.374306789E0,1.237499993E-3,0.000000000E0,8.249999955E-4,1.487289893E-3
2.376294791E0,1.237499993E-3,0.000000000E0,-1.374999993E-4,1.245115450E-3
2.378283097E0,1.237499993E-3,0.000000000E0,-1.374999993E-4,1.245115450E-3
2.380271099E0,1.374999993E-4,0.000000000E0,-1.374999993E-4,1.944543638E-4
2.382259186E0,1.374999993E-4,0.000000000E0,8.249999955E-4,8.363798434E-4
2.384247414E0,1.374999993E-4,-2.062499989E-3,8.249999955E-4,2.225631921E-3
2.386235493E0,1.374999993E-4,-2.062499989E-3,8.249999955E-4,2.225631921E-3
2.388223722E0,1.237499993E-3,0.000000000E0,-1.374999993E-4,1.245115450E-3
2.390211801E0,1.237499993E-3,1.099999994E-3,-1.374999993E-4,1.661418812E-3
2.392199801E0,1.237499993E-3,0.000000000E0,8.249999955E-4,1.487289893E-3
2.394188049E0,1.237499993E-3,0.000000000E0,8.249999955E-4,1.487289893E-3
2.396176128E0,1.237499993E-3,1.099999994E-3,-1.374999993E-4,1.661418812E-3
2.398164357E0,1.237499993E-3,0.000000000E0,-1.374999993E-4,1.245115450E-3
2.400152436E0,1.374999993E-4,-1.099999994E-3,-1.374999993E-4,1.117055275E-3
2.402140664E0,1.374999993E-4,0.000000000E0,8.249999955E-4,8.363798434E-4
2.404128743E0,1.374999993E-4,1.099999994E-3,8.249999955E-4,1.381857890E-3
2.406116957E0,1.237499993E-3,0.000000000E0,8.249999955E-4,1.487289893E-3
2.408105036E0,1.237499993E-3,0.000000000E0,-1.374999993E-4,1.245115450E-3
2.410093036E0,1.374999993E-4,0.000000000E0,-1.374999993E-4,1.944543638E-4
2.412081265E0,1.374999993E-4,1.099999994E-3,8.249999955E-4,1.381857890E-3
2.414069572E0,1.374999993E-4,2.199999988E-3,-1.374999993E-4,2.208577019E-3
2.416057675E0,1.374999993E-4,1.099999994E-3,-1.374999993E-4,1.117055275E-3
2.418045675E0,1.374999993E-4,0.000000000E0,8.249999955E-4,8.363798434E-4
2.420033904E0,1.374999993E-4,0.000000000E0,8.249999955E-4,8.363798434E-4
2.422021983E0,-9.624999948E-4,0.000000000E0,-1.374999993E-4,9.722718189E-4
2.424010212E0,-9.624999948E-4,1.099999994E-3,-1.374999993E-4,1.468098252E-3
2.425998291E0,-9.624999948E-4,1.099999994E-3,-1.374999993E-4,1.468098252E-3
2.427986525E0,1.374999993E-4,1.099999994E-3,8.249999955E-4,1.381857890E-3
2.429974527E0,1.237499993E-3,1.099999994E-3,8.249999955E-4,1.849873296E-3
2.431962601E0,1.237499993E-3,1.099999994E-3,-1.374999993E-4,1.661418812E-3
2.433950832E0,1.237499993E-3,1.099999994E-3,8.249999955E-4,1.849873296E-3
2.435938911E0,1.374999993E-4,0.000000000E0,8.249999955E-4,8.363798434E-4
2.437927140E0,1.374999993E-4,0.000000000E0,-1.374999993E-4,1.944543638E-4
2.439915243E0,1.374999993E-4,1.099999994E-3,-1.374999993E-4,1.117055275E-3
2.441903243E0,1.237499993E-3,1.099999994E-3,-1.374999993E-4,1.661418812E-3
2.443891549E0,1.374999993E-4,0.000000000E0,-1.374999993E-4,1.944543638E-4
2.445879779E0,1.374999993E-4,-2.062499989E-3,8.249999955E-4,2.225631921E-3
2.447867858E0,1.237499993E-3,-1.099999994E-3,8.249999955E-4,1.849873296E-3
2.449856087E0,2.199999988E-3,1.099999994E-3,8.249999955E-4,2.594344797E-3
2.451844070E0,1.237499993E-3,1.099999994E-3,8.249999955E-4,1.849873296E-3
2.453832145E0,-9.624999948E-4,-1.099999994E-3,8.249999955E-4,1.678401388E-3
2.455820376E0,1.374999993E-4,-1.099999994E-3,-1.374999993E-4,1.117055275E-3
2.457808455E0,2.199999988E-3,0.000000000E0,-1.374999993E-4,2.204292675E-3
2.459796683E0,1.237499993E-3,0.000000000E0,-1.374999993E-4,1.245115450E-3
2.461784762E0,1.374999993E-4,-1.099999994E-3,8.249999955E-4,1.381857890E-3
2.463772991E0,1.374999993E-4,1.099999994E-3,8.249999955E-4,1.381857890E-3
2.465761070E0,1.237499993E-3,1.099999994E-3,-1.374999993E-4,1.661418812E-3
2.467749070E0,1.374999993E-4,0.000000000E0,-1.374999993E-4,1.944543638E-4
2.469737299E0,1.374999993E-4,0.000000000E0,-1.374999993E-4,1.944543638E-4
2.471725378E0,1.374999993E-4,0.000000000E0,8.249999955E-4,8.363798434E-4
2.473713607E0,1.374999993E-4,1.099999994E-3,8.249999955E-4,1.381857890E-3
2.475701685E0,1.374999993E-4,1.099999994E-3,8.249999955E-4,1.381857890E-3
2.477689914E0,1.374999993E-4,0.000000000E0,8.249999955E-4,8.363798434E-4
2.479677993E0,1.237499993E-3,0.000000000E0,-1.374999993E-4,1.245115450E-3
2.481666222E0,1.374999993E-4,0.000000000E0,-1.374999993E-4,1.944543638E-4
2.483654301E0,1.374999993E-4,-1.099999994E-3,-1.374999993E-4,1.117055275E-3
2.485642530E0,1.237499993E-3,-1.099999994E-3,-1.374999993E-4,1.661418812E-3
2.487630594E0,1.237499993E-3,0.000000000E0,8.249999955E-4,1.487289893E-3
2.489618594E0,1.374999993E-4,0.000000000E0,-1.374999993E-4,1.944543638E-4
2.491606822E0,1.374999993E-4,0.000000000E0,-1.374999993E-4,1.944543638E-4
2.493594901E0,1.237499993E-3,0.000000000E0,-1.374999993E-4,1.245115450E-3
2.495583130E0,1.237499993E-3,1.099999994E-3,-1.374999993E-4,1.661418812E-3
2.497571209E0,1.374999993E-4,1.099999994E-3,8.249999955E-4,1.381857890E-3
2.499559467E0,1.237499993E-3,1.099999994E-3,8.249999955E-4,1.849873296E-3
2.501547546E0,1.237499993E-3,1.099999994E-3,8.249999955E-4,1.849873296E-3
2.503535774E0,1.374999993E-4,0.000000000E0,-1.374999993E-4,1.944543638E-4
2.505523776E0,1.374999993E-4,-1.099999994E-3,8.249999955E-4,1.381857890E-3
2.507511851E0,1.374999993E-4,0.000000000E0,8.249999955E-4,8.363798434E-4
2.509500082E0,1.374999993E-4,0.000000000E0,8.249999955E-4,8.363798434E-4
2.511488176E0,1.374999993E-4,1.099999994E-3,8.249999955E-4,1.381857890E-3
2.513476405E0,1.374999993E-4,1.099999994E-3,8.249999955E-4,1.381857890E-3
2.515464484E0,1.237499993E-3,1.099999994E-3,-1.374999993E-4,1.661418812E-3
2.517452713E0,1.237499993E-3,0.000000000E0,-1.374999993E-4,1.245115450E-3
2.519440791E0,1.374999993E-4,-1.099999994E-3,1.924999990E-3,2.221380471E-3
2.521428792E0,-9.624999948E-4,-1.099999994E-3,8.249999955E-4,1.678401388E-3
2.523417097E0,1.374999993E-4,0.000000000E0,-1.374999993E-4,1.944543638E-4
2.525405328E0,1.237499993E-3,1.099999994E-3,-1.237499993E-3,2.067078241E-3
2.527393407E0,1.237499993E-3,0.000000000E0,-1.374999993E-4,1.245115450E-3
2.529381636E0,1.374999993E-4,-1.099999994E-3,-1.374999993E-4,1.117055275E-3
2.531369638E0,1.374999993E-4,-1.099999994E-3,8.249999955E-4,1.381857890E-3
2.533357713E0,1.374999993E-4,0.000000000E0,8.249999955E-4,8.363798434E-4
2.535345947E0,1.374999993E-4,1.099999994E-3,-1.374999993E-4,1.117055275E-3
2.537334026E0,1.374999993E-4,0.000000000E0,-1.237499993E-3,1.245115450E-3
2.539322255E0,1.374999993E-4,1.099999994E-3,-1.374999993E-4,1.117055275E-3
2.541310334E0,1.374999993E-4,1.099999994E-3,8.249999955E-4,1.381857890E-3
2.543298563E0,1.237499993E-3,0.000000000E0,1.924999990E-3,2.288456072E-3
2.545286565E0,1.237499993E-3,-1.099999994E-3,8.249999955E-4,1.849873296E-3
2.547274630E0,1.374999993E-4,-1.099999994E-3,-1.374999993E-4,1.117055275E-3
2.549262860E0,-9.624999948E-4,0.000000000E0,8.249999955E-4,1.267687356E-3
2.551250939E0,-9.624999948E-4,1.099999994E-3,8.249999955E-4,1.678401388E-3
2.553239168E0,1.374999993E-4,1.099999994E-3,8.249999955E-4,1.381857890E-3
2.555227247E0,1.374999993E-4,1.099999994E-3,-1.374999993E-4,1.117055275E-3
2.557215476E0,1.374999993E-4,0.000000000E0,-1.374999993E-4,1.944543638E-4
2.559203540E0,1.374999993E-4,-1.099999994E-3,-1.374999993E-4,1.117055275E-3
2.561191769E0,1.237499993E-3,-1.099999994E-3,-1.374999993E-4,1.661418812E-3
2.563179848E0,1.237499993E-3,0.000000000E0,-1.374999993E-4,1.245115450E-3
2.565168076E0,1.374999993E-4,0.000000000E0,-1.374999993E-4,1.944543638E-4
2.567156155E0,1.374999993E-4,0.000000000E0,8.249999955E-4,8.363798434E-4
2.569144384E0,1.374999993E-4,0.000000000E0,-1.374999993E-4,1.944543638E-4
2.571132382E0,1.237499993E-3,0.000000000E0,-1.374999993E-4,1.245115450E-3
2.573120457E0,1.237499993E-3,0.000000000E0,-1.374999993E-4,1.245115450E-3
2.575108688E0,1.237499993E-3,-1.099999994E-3,8.249999955E-4,1.849873296E-3
2.577096767E0,1.237499993E-3,0.000000000E0,-1.374999993E-4,1.245115450E-3
2.579084995E0,1.237499993E-3,1.099999994E-3,-1.374999993E-4,1.661418812E-3
2.581073074E0,2.199999988E-3,0.000000000E0,8.249999955E-4,2.349601017E-3
2.583061288E0,1.237499993E-3,0.000000000E0,1.924999990E-3,2.288456072E-3
2.585049290E0,1.237499993E-3,2.199999988E-3,1.924999990E-3,3.174433987E-3
2.587037365E0,1.237499993E-3,2.199999988E-3,8.249999955E-4,2.655566074E-3
2.589025596E0,1.237499993E-3,0.000000000E0,8.249999955E-4,1.487289893E-3
2.591013675E0,1.237499993E-3,-1.099999994E-3,-1.374999993E-4,1.661418812E-3
2.593001904E0,1.374999993E-4,0.000000000E0,-1.374999993E-4,1.944543638E-4
2.594990006E0,-9.624999948E-4,0.000000000E0,-1.374999993E-4,9.722718189E-4
2.596978235E0,-9.624999948E-4,-1.099999994E-3,-1.374999993E-4,1.468098252E-3
2.598966314E0,-9.624999948E-4,-1.099999994E-3,-1.374999993E-4,1.468098252E-3
2.600954314E0,1.374999993E-4,-1.099999994E-3,8.249999955E-4,1.381857890E-3
2.602942620E0,1.374999993E-4,0.000000000E0,8.249999955E-4,8.363798434E-4
2.604930851E0,1.374999993E-4,0.000000000E0,-1.374999993E-4,1.944543638E-4
2.606918901E0,1.237499993E-3,0.000000000E0,-1.374999993E-4,1.245115450E-3
2.608906901E0,1.374999993E-4,1.099999994E-3,-1.374999993E-4,1.117055275E-3
2.610895129E0,1.374999993E-4,1.099999994E-3,-1.374999993E-4,1.117055275E-3
2.612883208E0,1.374999993E-4,0.000000000E0,-1.374999993E-4,1.944543638E-4
2.614871437E0,1.237499993E-3,0.000000000E0,-1.374999993E-4,1.245115450E-3
2.616859531E0,1.237499993E-3,0.000000000E0,8.249999955E-4,1.487289893E-3
2.618847760E0,1.374999993E-4,0.000000000E0,-1.374999993E-4,1.944543638E-4
2.620835839E0,1.374999993E-4,1.099999994E-3,-1.237499993E-3,1.661418812E-3
2.622824067E0,1.237499993E-3,1.099999994E-3,-1.237499993E-3,2.067078241E-3
2.624812069E0,1.237499993E-3,1.099999994E-3,-1.374999993E-4,1.661418812E-3
2.626800144E0,1.374999993E-4,0.000000000E0,8.249999955E-4,8.363798434E-4
2.628788360E0,1.374999993E-4,0.000000000E0,8.249999955E-4,8.363798434E-4
2.630776439E0,1.374999993E-4,1.099999994E-3,-1.374999993E-4,1.117055275E-3
2.632764668E0,1.237499993E-3,1.099999994E-3,-1.374999993E-4,1.661418812E-3
2.634752747E0,1.237499993E-3,0.000000000E0,8.249999955E-4,1.487289893E-3
2.636740976E0,1.237499993E-3,0.000000000E0,-1.374999993E-4,1.245115450E-3
2.638729054E0,1.374999993E-4,1.099999994E-3,-1.374999993E-4,1.117055275E-3
2.640717298E0,1.374999993E-4,1.099999994E-3,-1.374999993E-4,1.117055275E-3
2.642705377E0,1.374999993E-4,1.099999994E-3,-1.374999993E-4,1.117055275E-3
2.644693606E0,1.374999993E-4,1.099999994E-3,-1.374999993E-4,1.117055275E-3
2.646681685E0,1.237499993E-3,0.000000000E0,-1.374999993E-4,1.245115450E-3
2.648669914E0,1.237499993E-3,0.000000000E0,8.249999955E-4,1.487289893E-3
2.650657916E0,1.237499993E-3,1.099999994E-3,8.249999955E-4,1.849873296E-3
2.652646000E0,1.237499993E-3,2.199999988E-3,-1.374999993E-4,2.527906729E-3
2.654634230E0,1.237499993E-3,1.099999994E-3,-1.374999993E-4,1.661418812E-3
2.656622309E0,1.237499993E-3,0.000000000E0,-1.374999993E-4,1.245115450E-3
2.658610538E0,1.237499993E-3,0.000000000E0,-1.374999993E-4,1.245115450E-3
2.660598617E0,1.374999993E-4,-1.099999994E-3,-1.374999993E-4,1.117055275E-3
2.662586846E0,1.374999993E-4,0.000000000E0,8.249999955E-4,8.363798434E-4
2.664574843E0,1.374999993E-4,0.000000000E0,-1.374999993E-4,1.944543638E-4
2.666562918E0,1.374999993E-4,-1.099999994E-3,-1.237499993E-3,1.661418812E-3
2.668551148E0,1.374999993E-4,-1.099999994E-3,-1.237499993E-3,1.661418812E-3
2.670539227E0,1.374999993E-4,1.099999994E-3,-1.374999993E-4,1.117055275E-3
2.672527456E0,1.237499993E-3,1.099999994E-3,8.249999955E-4,1.849873296E-3
2.674515535E0,1.374999993E-4,0.000000000E0,8.249999955E-4,8.363798434E-4
2.676503760E0,1.374999993E-4,-1.099999994E-3,8.249999955E-4,1.381857890E-3
2.678491839E0,-9.624999948E-4,-1.099999994E-3,8.249999955E-4,1.678401388E-3
2.680479839E0,-9.624999948E-4,-1.099999994E-3,8.249999955E-4,1.678401388E-3
2.682468145E0,1.374999993E-4,0.000000000E0,8.249999955E-4,8.363798434E-4
2.684456375E0,1.374999993E-4,0.000000000E0,8.249999955E-4,8.363798434E-4
2.686444454E0,1.374999993E-4,0.000000000E0,-1.374999993E-4,1.944543638E-4
2.688432425E0,1.374999993E-4,1.099999994E-3,-1.374999993E-4,1.117055275E-3
2.690420731E0,1.237499993E-3,1.099999994E-3,8.249999955E-4,1.849873296E-3
2.692408733E0,1.237499993E-3,0.000000000E0,8.249999955E-4,1.487289893E-3
2.694396962E0,1.374999993E-4,0.000000000E0,-1.374999993E-4,1.944543638E-4
2.696385041E0,1.374999993E-4,1.099999994E-3,-1.374999993E-4,1.117055275E-3
2.698373269E0,1.374999993E-4,0.000000000E0,8.249999955E-4,8.363798434E-4
2.700361348E0,1.374999993E-4,0.000000000E0,8.249999955E-4,8.363798434E-4
2.702349577E0,1.374999993E-4,0.000000000E0,-1.374999993E-4,1.944543638E-4
2.704337656E0,1.374999993E-4,0.000000000E0,-1.374999993E-4,1.944543638E-4
2.706325656E0,1.374999993E-4,0.000000000E0,-1.374999993E-4,1.944543638E-4
2.708313885E0,1.237499993E-3,0.000000000E0,-1.374999993E-4,1.245115450E-3
2.710301964E0,1.237499993E-3,1.099999994E-3,-1.374999993E-4,1.661418812E-3
2.712290187E0,1.374999993E-4,1.099999994E-3,-1.374999993E-4,1.117055275E-3
2.714278266E0,1.237499993E-3,1.099999994E-3,-1.374999993E-4,1.661418812E-3
2.716266495E0,1.237499993E-3,0.000000000E0,-1.374999993E-4,1.245115450E-3
2.718254574E0,1.374999993E-4,0.000000000E0,-1.374999993E-4,1.944543638E-4
2.720242803E0,1.374999993E-4,1.099999994E-3,-1.374999993E-4,1.117055275E-3
2.722230882E0,1.374999993E-4,1.099999994E-3,8.249999955E-4,1.381857890E-3
2.724219111E0,1.374999993E-4,1.099999994E-3,8.249999955E-4,1.381857890E-3
2.726207190E0,1.237499993E-3,1.099999994E-3,8.249999955E-4,1.849873296E-3
2.728195418E0,1.237499993E-3,1.099999994E-3,8.249999955E-4,1.849873296E-3
2.730183497E0,1.237499993E-3,1.099999994E-3,-1.374999993E-4,1.661418812E-3
2.732171497E0,1.374999993E-4,1.099999994E-3,-1.237499993E-3,1.661418812E-3
2.734159741E0,1.374999993E-4,0.000000000E0,-1.237499993E-3,1.245115450E-3
2.736147820E0,1.374999993E-4,0.000000000E0,-1.374999993E-4,1.944543638E-4
2.738136049E0,1.374999993E-4,0.000000000E0,-1.374999993E-4,1.944543638E-4
2.740124128E0,1.237499993E-3,1.099999994E-3,8.249999955E-4,1.849873296E-3
2.742112356E0,1.237499993E-3,1.099999994E-3,-1.374999993E-4,1.661418812E-3
2.744100435E0,1.237499993E-3,0.000000000E0,-1.374999993E-4,1.245115450E-3
2.746088683E0,1.374999993E-4,0.000000000E0,-1.237499993E-3,1.245115450E-3
2.748076685E0,1.374999993E-4,1.099999994E-3,-1.237499993E-3,1.661418812E-3
2.750064760E0,1.374999993E-4,1.099999994E-3,-1.374999993E-4,1.117055275E-3
2.752052991E0,1.374999993E-4,0.000000000E0,-1.374999993E-4,1.944543638E-4
2.754041070E0,1.237499993E-3,-1.099999994E-3,-1.374999993E-4,1.661418812E-3
2.756029299E0,1.237499993E-3,-1.099999994E-3,8.249999955E-4,1.849873296E-3
2.758017358E0,1.374999993E-4,-1.099999994E-3,8.249999955E-4,1.381857890E-3
2.760005587E0,-9.624999948E-4,0.000000000E0,8.249999955E-4,1.267687356E-3
2.761993666E0,1.374999993E-4,1.099999994E-3,-1.374999993E-4,1.117055275E-3
2.763981895E0,1.374999993E-4,1.099999994E-3,-1.374999993E-4,1.117055275E-3
2.765969974E0,1.374999993E-4,1.099999994E-3,8.249999955E-4,1.381857890E-3
2.767957974E0,1.374999993E-4,1.099999994E-3,8.249999955E-4,1.381857890E-3
2.769946280E0,1.237499993E-3,0.000000000E0,8.249999955E-4,1.487289893E-3
2.771934510E0,1.237499993E-3,1.099999994E-3,-1.374999993E-4,1.661418812E-3
2.773922512E0,1.374999993E-4,1.099999994E-3,-1.374999993E-4,1.117055275E-3
2.775910589E0,1.374999993E-4,-1.099999994E-3,-1.374999993E-4,1.117055275E-3
2.777898818E0,-9.624999948E-4,-2.062499989E-3,8.249999955E-4,2.420937305E-3
2.779886897E0,-9.624999948E-4,-3.162499983E-3,8.249999955E-4,3.407115697E-3
2.781875116E0,-9.624999948E-4,-1.099999994E-3,8.249999955E-4,1.678401388E-3
2.783863195E0,1.374999993E-4,1.099999994E-3,-1.374999993E-4,1.117055275E-3
2.785851423E0,1.374999993E-4,1.099999994E-3,-1.374999993E-4,1.117055275E-3
2.787839502E0,1.374999993E-4,1.099999994E-3,-1.374999993E-4,1.117055275E-3
2.789827502E0,1.374999993E-4,1.099999994E-3,-1.374999993E-4,1.117055275E-3
2.791815731E0,1.374999993E-4,1.099999994E-3,8.249999955E-4,1.381857890E-3
2.793803796E0,1.374999993E-4,0.000000000E0,8.249999955E-4,8.363798434E-4
2.795792025E0,1.237499993E-3,0.000000000E0,8.249999955E-4,1.487289893E-3
2.797780104E0,1.237499993E-3,0.000000000E0,-1.374999993E-4,1.245115450E-3
2.799768333E0,1.374999993E-4,0.000000000E0,-1.374999993E-4,1.944543638E-4
2.801756411E0,1.374999993E-4,0.000000000E0,-1.374999993E-4,1.944543638E-4
2.803744640E0,1.237499993E-3,0.000000000E0,-1.374999993E-4,1.245115450E-3
2.805732700E0,1.374999993E-4,1.099999994E-3,-1.374999993E-4,1.117055275E-3
2.807720929E0,1.374999993E-4,1.099999994E-3,-1.374999993E-4,1.117055275E-3
2.809709008E0,1.374999993E-4,0.000000000E0,8.249999955E-4,8.363798434E-4
2.811697237E0,1.374999993E-4,0.000000000E0,8.249999955E-4,8.363798434E-4
2.813685316E0,1.374999993E-4,0.000000000E0,8.249999955E-4,8.363798434E-4
2.815673301E0,1.374999993E-4,1.099999994E-3,8.249999955E-4,1.381857890E-3
2.817661529E0,1.374999993E-4,1.099999994E-3,-1.374999993E-4,1.117055275E-3
2.819649608E0,1.237499993E-3,-1.099999994E-3,8.249999955E-4,1.849873296E-3
2.821637837E0,1.374999993E-4,-1.099999994E-3,8.249999955E-4,1.381857890E-3
2.823625916E0,1.237499993E-3,1.099999994E-3,-1.374999993E-4,1.661418812E-3
2.825614145E0,1.237499993E-3,2.199999988E-3,-1.374999993E-4,2.527906729E-3
2.827602224E0,1.374999993E-4,0.000000000E0,-1.374999993E-4,1.944543638E-4
2.829590452E0,1.374999993E-4,-1.099999994E-3,8.249999955E-4,1.381857890E-3
2.831578531E0,1.374999993E-4,0.000000000E0,8.249999955E-4,8.363798434E-4
2.833566531E0,1.374999993E-4,0.000000000E0,8.249999955E-4,8.363798434E-4
2.835554760E0,1.374999993E-4,0.000000000E0,-1.374999993E-4,1.944543638E-4
2.837542839E0,1.237499993E-3,0.000000000E0,-1.374999993E-4,1.245115450E-3
2.839531068E0,1.237499993E-3,1.099999994E-3,-1.237499993E-3,2.067078241E-3
2.841519147E0,1.374999993E-4,1.099999994E-3,-1.237499993E-3,1.661418812E-3
2.843507376E0,1.374999993E-4,0.000000000E0,-1.374999993E-4,1.944543638E-4
2.845495455E0,1.374999993E-4,-1.099999994E-3,8.249999955E-4,1.381857890E-3
2.847483455E0,1.374999993E-4,-1.099999994E-3,8.249999955E-4,1.381857890E-3
2.849471760E0,1.374999993E-4,-1.099999994E-3,8.249999955E-4,1.381857890E-3
2.851459996E0,1.374999993E-4,0.000000000E0,-1.374999993E-4,1.944543638E-4
2.853447998E0,1.374999993E-4,1.099999994E-3,-1.374999993E-4,1.117055275E-3
2.855436304E0,1.374999993E-4,0.000000000E0,-1.374999993E-4,1.944543638E-4
2.857424306E0,1.374999993E-4,-1.099999994E-3,-1.374999993E-4,1.117055275E-3
2.859412611E0,1.237499993E-3,-1.099999994E-3,-1.374999993E-4,1.661418812E-3
2.861400613E0,1.237499993E-3,0.000000000E0,-1.374999993E-4,1.245115450E-3
2.863388709E0,1.237499993E-3,0.000000000E0,-1.374999993E-4,1.245115450E-3
2.865376938E0,1.374999993E-4,0.000000000E0,-1.374999993E-4,1.944543638E-4
2.867365017E0,1.374999993E-4,0.000000000E0,-1.374999993E-4,1.944543638E-4
2.869353246E0,1.374999993E-4,1.099999994E-3,-1.374999993E-4,1.117055275E-3
2.871341325E0,1.374999993E-4,1.099999994E-3,8.249999955E-4,1.381857890E-3
2.873329553E0,-9.624999948E-4,0.000000000E0,8.249999955E-4,1.267687356E-3
2.875317661E0,-9.624999948E-4,0.000000000E0,1.924999990E-3,2.152215417E-3
2.877305661E0,-9.624999948E-4,0.000000000E0,8.249999955E-4,1.267687356E-3
2.879293890E0,-9.624999948E-4,1.099999994E-3,-1.374999993E-4,1.468098252E-3
2.881281969E0,1.237499993E-3,2.199999988E-3,-1.237499993E-3,2.811194126E-3
2.883270198E0,1.237499993E-3,2.199999988E-3,-1.374999993E-4,2.527906729E-3
2.885258277E0,1.237499993E-3,1.099999994E-3,8.249999955E-4,1.849873296E-3
2.887246501E0,1.237499993E-3,-1.099999994E-3,-1.374999993E-4,1.661418812E-3
2.889234580E0,1.237499993E-3,-2.062499989E-3,-1.374999993E-4,2.409194614E-3
2.891222808E0,1.374999993E-4,0.000000000E0,-1.374999993E-4,1.944543638E-4
2.893210887E0,-9.624999948E-4,1.099999994E-3,8.249999955E-4,1.678401388E-3
2.895198887E0,1.237499993E-3,0.000000000E0,8.249999955E-4,1.487289893E-3
2.897187116E0,1.237499993E-3,0.000000000E0,8.249999955E-4,1.487289893E-3
2.899175200E0,1.374999993E-4,0.000000000E0,-1.374999993E-4,1.944543638E-4
2.901163506E0,-9.624999948E-4,0.000000000E0,-1.374999993E-4,9.722718189E-4
2.903151508E0,1.237499993E-3,1.099999994E-3,-1.374999993E-4,1.661418812E-3
2.905139736E0,1.237499993E-3,1.099999994E-3,-1.374999993E-4,1.661418812E-3
2.907127815E0,1.374999993E-4,-1.099999994E-3,-1.374999993E-4,1.117055275E-3
2.909116044E0,-9.624999948E-4,-2.062499989E-3,-1.374999993E-4,2.280179531E-3
2.911104118E0,1.374999993E-4,-1.099999994E-3,-1.374999993E-4,1.117055275E-3
2.913092347E0,-9.624999948E-4,2.199999988E-3,-1.374999993E-4,2.405267644E-3
2.915080426E0,-9.624999948E-4,2.199999988E-3,-1.374999993E-4,2.405267644E-3
2.917068655E0,-9.624999948E-4,0.000000000E0,-1.374999993E-4,9.722718189E-4
2.919056657E0,1.237499993E-3,-1.099999994E-3,-1.374999993E-4,1.661418812E-3
2.921044731E0,1.237499993E-3,-1.099999994E-3,8.249999955E-4,1.849873296E-3
2.923032942E0,1.237499993E-3,-1.099999994E-3,1.924999990E-3,2.539100467E-3
2.925021021E0,1.374999993E-4,-1.099999994E-3,8.249999955E-4,1.381857890E-3
2.927009250E0,1.374999993E-4,0.000000000E0,8.249999955E-4,8.363798434E-4
2.928997329E0,1.374999993E-4,1.099999994E-3,-1.374999993E-4,1.117055275E-3
2.930985558E0,1.237499993E-3,1.099999994E-3,8.249999955E-4,1.849873296E-3
2.932973637E0,1.237499993E-3,1.099999994E-3,8.249999955E-4,1.849873296E-3
2.934961870E0,1.237499993E-3,0.000000000E0,-1.374999993E-4,1.245115450E-3
2.936949872E0,1.374999993E-4,1.099999994E-3,-1.374999993E-4,1.117055275E-3
2.938938178E0,1.374999993E-4,0.000000000E0,8.249999955E-4,8.363798434E-4
2.940926180E0,1.374999993E-4,0.000000000E0,8.249999955E-4,8.363798434E-4
2.942914257E0,1.374999993E-4,0.000000000E0,8.249999955E-4,8.363798434E-4
2.944902486E0,1.374999993E-4,1.099999994E-3,8.249999955E-4,1.381857890E-3
2.946890594E0,1.374999993E-4,1.099999994E-3,-1.374999993E-4,1.117055275E-3
2.948878822E0,-9.624999948E-4,1.099999994E-3,-1.374999993E-4,1.468098252E-3
2.950866901E0,-9.624999948E-4,0.000000000E0,-1.374999993E-4,9.722718189E-4
2.952855130E0,1.374999993E-4,0.000000000E0,8.249999955E-4,8.363798434E-4
2.954843209E0,1.374999993E-4,0.000000000E0,8.249999955E-4,8.363798434E-4
2.956831438E0,1.374999993E-4,-1.099999994E-3,8.249999955E-4,1.381857890E-3
2.958819517E0,1.374999993E-4,0.000000000E0,8.249999955E-4,8.363798434E-4
2.960807746E0,1.237499993E-3,-1.099999994E-3,8.249999955E-4,1.849873296E-3
2.962795824E0,1.237499993E-3,-1.099999994E-3,-1.374999993E-4,1.661418812E-3
2.964783824E0,1.374999993E-4,0.000000000E0,-1.374999993E-4,1.944543638E-4
2.966772053E0,1.374999993E-4,0.000000000E0,8.249999955E-4,8.363798434E-4
2.968760132E0,1.374999993E-4,0.000000000E0,8.249999955E-4,8.363798434E-4
2.970748375E0,2.199999988E-3,0.000000000E0,8.249999955E-4,2.349601017E-3
2.972736454E0,1.237499993E-3,0.000000000E0,-1.374999993E-4,1.245115450E-3
2.974724683E0,1.374999993E-4,0.000000000E0,-1.374999993E-4,1.944543638E-4
2.976712762E0,1.374999993E-4,0.000000000E0,-1.374999993E-4,1.944543638E-4
2.978700990E0,1.237499993E-3,1.099999994E-3,-1.374999993E-4,1.661418812E-3
2.980689069E0,1.237499993E-3,1.099999994E-3,-1.374999993E-4,1.661418812E-3
2.982677079E0,1.374999993E-4,0.000000000E0,-1.374999993E-4,1.944543638E-4
2.984665308E0,1.374999993E-4,0.000000000E0,-1.374999993E-4,1.944543638E-4
2.986653387E0,1.374999993E-4,0.000000000E0,-1.374999993E-4,1.944543638E-4
2.988641616E0,1.374999993E-4,1.099999994E-3,8.249999955E-4,1.381857890E-3
2.990629695E0,1.374999993E-4,2.199999988E-3,8.249999955E-4,2.353620868E-3
2.992617923E0,1.374999993E-4,2.199999988E-3,-1.374999993E-4,2.208577019E-3
2.994606016E0,1.374999993E-4,1.099999994E-3,-1.374999993E-4,1.117055275E-3
2.996594245E0,-9.624999948E-4,0.000000000E0,-1.374999993E-4,9.722718189E-4
2.998582324E0,-9.624999948E-4,0.000000000E0,8.249999955E-4,1.267687356E-3
3.000570553E0,1.374999993E-4,1.099999994E-3,8.249999955E-4,1.381857890E-3
3.002558632E0,1.374999993E-4,1.099999994E-3,8.249999955E-4,1.381857890E-3
3.004546861E0,1.374999993E-4,0.000000000E0,-1.374999993E-4,1.944543638E-4
3.006534902E0,1.374999993E-4,0.000000000E0,-1.374999993E-4,1.944543638E-4
3.008523207E0,1.237499993E-3,1.099999994E-3,-1.374999993E-4,1.661418812E-3
3.010511209E0,1.237499993E-3,2.199999988E-3,-1.374999993E-4,2.527906729E-3
3.012499286E0,1.374999993E-4,1.099999994E-3,-1.374999993E-4,1.117055275E-3
3.014487515E0,-9.624999948E-4,1.099999994E-3,-1.374999993E-4,1.468098252E-3
3.016475584E0,1.374999993E-4,1.099999994E-3,-1.374999993E-4,1.117055275E-3
3.018463813E0,1.237499993E-3,1.099999994E-3,8.249999955E-4,1.849873296E-3
3.020451892E0,2.199999988E-3,1.099999994E-3,-1.374999993E-4,2.463515006E-3
3.022440120E0,1.237499993E-3,1.099999994E-3,-1.374999993E-4,1.661418812E-3
3.024428199E0,1.237499993E-3,0.000000000E0,-1.374999993E-4,1.245115450E-3
3.026416199E0,1.237499993E-3,0.000000000E0,-1.374999993E-4,1.245115450E-3
3.028404437E0,1.237499993E-3,1.099999994E-3,-1.374999993E-4,1.661418812E-3
3.030392516E0,1.374999993E-4,1.099999994E-3,-1.374999993E-4,1.117055275E-3
3.032380745E0,1.374999993E-4,0.000000000E0,-1.374999993E-4,1.944543638E-4
3.034368824E0,1.237499993E-3,1.099999994E-3,8.249999955E-4,1.849873296E-3
3.036357052E0,1.237499993E-3,2.199999988E-3,8.249999955E-4,2.655566074E-3
3.038345131E0,1.237499993E-3,2.199999988E-3,8.249999955E-4,2.655566074E-3
3.040333389E0,1.237499993E-3,1.099999994E-3,-1.374999993E-4,1.661418812E-3
3.042321468E0,1.374999993E-4,0.000000000E0,-1.374999993E-4,1.944543638E-4
3.044309697E0,1.374999993E-4,0.000000000E0,-1.374999993E-4,1.944543638E-4
3.046297776E0,-9.624999948E-4,0.000000000E0,-1.374999993E-4,9.722718189E-4
3.048286005E0,-9.624999948E-4,0.000000000E0,-1.374999993E-4,9.722718189E-4
3.050274084E0,1.374999993E-4,1.099999994E-3,8.249999955E-4,1.381857890E-3
3.052262065E0,1.237499993E-3,0.000000000E0,8.249999955E-4,1.487289893E-3
3.054250293E0,1.237499993E-3,0.000000000E0,8.249999955E-4,1.487289893E-3
3.056238372E0,1.374999993E-4,0.000000000E0,8.249999955E-4,8.363798434E-4
3.058226601E0,1.374999993E-4,0.000000000E0,-1.374999993E-4,1.944543638E-4
3.060214680E0,1.237499993E-3,0.000000000E0,-1.374999993E-4,1.245115450E-3
3.062202909E0,1.237499993E-3,1.099999994E-3,-1.374999993E-4,1.661418812E-3
3.064190959E0,1.237499993E-3,0.000000000E0,-1.374999993E-4,1.245115450E-3
3.066179187E0,1.237499993E-3,-1.099999994E-3,8.249999955E-4,1.849873296E-3
3.068167266E0,1.237499993E-3,-1.099999994E-3,8.249999955E-4,1.849873296E-3
3.070155495E0,1.237499993E-3,0.000000000E0,8.249999955E-4,1.487289893E-3
3.072143497E0,1.237499993E-3,1.099999994E-3,8.249999955E-4,1.849873296E-3
3.074131572E0,1.237499993E-3,1.099999994E-3,-1.374999993E-4,1.661418812E-3
3.076119779E0,1.237499993E-3,1.099999994E-3,-1.374999993E-4,1.661418812E-3
3.078107858E0,1.374999993E-4,1.099999994E-3,-1.374999993E-4,1.117055275E-3
3.080096087E0,-9.624999948E-4,2.199999988E-3,-1.374999993E-4,2.405267644E-3
3.082084165E0,1.374999993E-4,1.099999994E-3,-1.374999993E-4,1.117055275E-3
3.084072394E0,1.374999993E-4,0.000000000E0,-1.374999993E-4,1.944543638E-4
3.086060473E0,1.374999993E-4,1.099999994E-3,-1.374999993E-4,1.117055275E-3
3.088048697E0,1.374999993E-4,1.099999994E-3,-1.374999993E-4,1.117055275E-3
3.090036776E0,1.237499993E-3,0.000000000E0,8.249999955E-4,1.487289893E-3
3.092025005E0,1.237499993E-3,0.000000000E0,-1.374999993E-4,1.245115450E-3
3.094013007E0,1.374999993E-4,2.199999988E-3,-1.374999993E-4,2.208577019E-3
3.096001312E0,1.374999993E-4,1.099999994E-3,-1.374999993E-4,1.117055275E-3
3.097989391E0,1.374999993E-4,0.000000000E0,-1.374999993E-4,1.944543638E-4
3.099977405E0,1.374999993E-4,1.099999994E-3,-1.374999993E-4,1.117055275E-3
3.101965634E0,1.374999993E-4,1.099999994E-3,-1.374999993E-4,1.117055275E-3
3.103953713E0,1.237499993E-3,1.099999994E-3,-1.374999993E-4,1.661418812E-3
3.105941942E0,1.237499993E-3,0.000000000E0,-1.374999993E-4,1.245115450E-3
3.107930021E0,1.374999993E-4,0.000000000E0,-1.374999993E-4,1.944543638E-4
3.109918249E0,-9.624999948E-4,-1.099999994E-3,8.249999955E-4,1.678401388E-3
3.111906319E0,-9.624999948E-4,-2.062499989E-3,8.249999955E-4,2.420937305E-3
3.113894548E0,1.374999993E-4,-1.099999994E-3,-1.374999993E-4,1.117055275E-3
3.115882627E0,1.374999993E-4,0.000000000E0,-1.374999993E-4,1.944543638E-4
3.117870856E0,1.237499993E-3,0.000000000E0,8.249999955E-4,1.487289893E-3
3.119858858E0,1.374999993E-4,1.099999994E-3,-1.374999993E-4,1.117055275E-3
3.121846933E0,1.374999993E-4,1.099999994E-3,-1.374999993E-4,1.117055275E-3
3.123835159E0,1.374999993E-4,0.000000000E0,8.249999955E-4,8.363798434E-4
3.125823237E0,1.374999993E-4,0.000000000E0,8.249999955E-4,8.363798434E-4
3.127811466E0,1.374999993E-4,0.000000000E0,-1.374999993E-4,1.944543638E-4
3.129799545E0,1.237499993E-3,0.000000000E0,-1.374999993E-4,1.245115450E-3
3.131787774E0,1.237499993E-3,1.099999994E-3,-1.374999993E-4,1.661418812E-3
3.133775853E0,1.374999993E-4,1.099999994E-3,8.249999955E-4,1.381857890E-3
3.135764063E0,-9.624999948E-4,0.000000000E0,8.249999955E-4,1.267687356E-3
3.137752065E0,-9.624999948E-4,0.000000000E0,8.249999955E-4,1.267687356E-3
3.139740370E0,1.374999993E-4,1.099999994E-3,8.249999955E-4,1.381857890E-3
3.141728372E0,1.374999993E-4,1.099999994E-3,8.249999955E-4,1.381857890E-3
3.143716449E0,1.374999993E-4,0.000000000E0,8.249999955E-4,8.363798434E-4
3.145704678E0,1.374999993E-4,0.000000000E0,8.249999955E-4,8.363798434E-4
3.147692752E0,1.237499993E-3,0.000000000E0,-1.374999993E-4,1.245115450E-3
3.149680981E0,1.237499993E-3,0.000000000E0,-1.374999993E-4,1.245115450E-3
3.151669060E0,1.237499993E-3,1.099999994E-3,8.249999955E-4,1.849873296E-3
3.153657288E0,1.374999993E-4,0.000000000E0,8.249999955E-4,8.363798434E-4
3.155645367E0,1.374999993E-4,0.000000000E0,8.249999955E-4,8.363798434E-4
3.157633596E0,1.374999993E-4,0.000000000E0,8.249999955E-4,8.363798434E-4
3.159621656E0,1.374999993E-4,0.000000000E0,8.249999955E-4,8.363798434E-4
3.161609885E0,1.374999993E-4,0.000000000E0,8.249999955E-4,8.363798434E-4
3.163597964E0,1.237499993E-3,-1.099999994E-3,-1.374999993E-4,1.661418812E-3
3.165586193E0,1.237499993E-3,0.000000000E0,-1.374999993E-4,1.245115450E-3
3.167574195E0,1.374999993E-4,1.099999994E-3,-1.237499993E-3,1.661418812E-3
3.169562270E0,1.374999993E-4,1.099999994E-3,-1.374999993E-4,1.117055275E-3
3.171550485E0,1.374999993E-4,0.000000000E0,8.249999955E-4,8.363798434E-4
3.173538564E0,1.374999993E-4,0.000000000E0,8.249999955E-4,8.363798434E-4
3.175526793E0,1.374999993E-4,0.000000000E0,-1.374999993E-4,1.944543638E-4
3.177514872E0,1.237499993E-3,0.000000000E0,-1.374999993E-4,1.245115450E-3
3.179503101E0,1.237499993E-3,0.000000000E0,8.249999955E-4,1.487289893E-3
3.181491180E0,1.374999993E-4,0.000000000E0,-1.374999993E-4,1.944543638E-4
3.183479156E0,1.374999993E-4,1.099999994E-3,-1.374999993E-4,1.117055275E-3
3.185467384E0,1.237499993E-3,1.099999994E-3,-1.374999993E-4,1.661418812E-3
3.187455463E0,1.374999993E-4,0.000000000E0,-1.374999993E-4,1.944543638E-4
3.189443692E0,1.374999993E-4,0.000000000E0,-1.374999993E-4,1.944543638E-4
3.191431771E0,1.374999993E-4,0.000000000E0,-1.374999993E-4,1.944543638E-4
3.193420000E0,1.374999993E-4,0.000000000E0,8.249999955E-4,8.363798434E-4
3.195408055E0,1.374999993E-4,0.000000000E0,8.249999955E-4,8.363798434E-4
3.197396283E0,1.374999993E-4,0.000000000E0,8.249999955E-4,8.363798434E-4
3.199384362E0,1.237499993E-3,0.000000000E0,-1.374999993E-4,1.245115450E-3
3.201372591E0,1.237499993E-3,0.000000000E0,-1.374999993E-4,1.245115450E-3
3.203360670E0,1.237499993E-3,-1.099999994E-3,-1.374999993E-4,1.661418812E-3
3.205348899E0,1.374999993E-4,-1.099999994E-3,-1.374999993E-4,1.117055275E-3
3.207336988E0,-9.624999948E-4,-1.099999994E-3,8.249999955E-4,1.678401388E-3
3.209325217E0,1.374999993E-4,-1.099999994E-3,8.249999955E-4,1.381857890E-3
3.211313219E0,1.374999993E-4,-1.099999994E-3,-1.374999993E-4,1.117055275E-3
3.213301294E0,1.374999993E-4,-1.099999994E-3,-1.374999993E-4,1.117055275E-3
3.215289601E0,1.374999993E-4,-1.099999994E-3,-1.374999993E-4,1.117055275E-3
3.217277574E0,1.374999993E-4,0.000000000E0,-1.374999993E-4,1.944543638E-4
3.219265803E0,1.374999993E-4,1.099999994E-3,-1.374999993E-4,1.117055275E-3
3.221253882E0,-9.624999948E-4,1.099999994E-3,-1.374999993E-4,1.468098252E-3
3.223242111E0,1.374999993E-4,2.199999988E-3,-1.374999993E-4,2.208577019E-3
3.225230190E0,1.237499993E-3,3.162499983E-3,-1.237499993E-3,3.614445823E-3
3.227218418E0,1.237499993E-3,2.199999988E-3,-1.374999993E-4,2.527906729E-3
3.229206468E0,1.237499993E-3,0.000000000E0,8.249999955E-4,1.487289893E-3
3.231194697E0,1.374999993E-4,0.000000000E0,8.249999955E-4,8.363798434E-4
3.233182776E0,1.374999993E-4,0.000000000E0,-1.374999993E-4,1.944543638E-4
3.235170776E0,1.374999993E-4,1.099999994E-3,-1.237499993E-3,1.661418812E-3
3.237159005E0,1.374999993E-4,2.199999988E-3,-1.237499993E-3,2.527906729E-3
3.239147084E0,1.237499993E-3,2.199999988E-3,-1.374999993E-4,2.527906729E-3
3.241135327E0,2.199999988E-3,0.000000000E0,-1.374999993E-4,2.204292675E-3
3.243123405E0,1.237499993E-3,-1.099999994E-3,-1.374999993E-4,1.661418812E-3
3.245111634E0,1.374999993E-4,0.000000000E0,-1.237499993E-3,1.245115450E-3
3.247099713E0,1.374999993E-4,1.099999994E-3,-1.374999993E-4,1.117055275E-3
3.249087942E0,1.374999993E-4,0.000000000E0,-1.374999993E-4,1.944543638E-4
3.251076021E0,1.374999993E-4,0.000000000E0,-1.374999993E-4,1.944543638E-4
3.253064026E0,1.374999993E-4,0.000000000E0,-1.374999993E-4,1.944543638E-4
3.255052332E0,1.374999993E-4,0.000000000E0,8.249999955E-4,8.363798434E-4
3.257040334E0,1.374999993E-4,-1.099999994E-3,8.249999955E-4,1.381857890E-3
3.259028562E0,1.374999993E-4,0.000000000E0,8.249999955E-4,8.363798434E-4
3.261016641E0,1.374999993E-4,1.099999994E-3,-1.374999993E-4,1.117055275E-3
3.263004870E0,1.374999993E-4,1.099999994E-3,-1.374999993E-4,1.117055275E-3
3.264992959E0,1.374999993E-4,0.000000000E0,8.249999955E-4,8.363798434E-4
3.266981188E0,1.374999993E-4,0.000000000E0,8.249999955E-4,8.363798434E-4
3.268969267E0,1.374999993E-4,0.000000000E0,-1.374999993E-4,1.944543638E-4
3.270957495E0,1.237499993E-3,0.000000000E0,-1.374999993E-4,1.245115450E-3
3.272945574E0,1.374999993E-4,1.099999994E-3,-1.374999993E-4,1.117055275E-3
3.274933803E0,1.374999993E-4,1.099999994E-3,8.249999955E-4,1.381857890E-3
3.276921896E0,1.374999993E-4,1.099999994E-3,-1.374999993E-4,1.117055275E-3
3.278910125E0,1.237499993E-3,0.000000000E0,-1.374999993E-4,1.245115450E-3
3.280898204E0,1.237499993E-3,-1.099999994E-3,8.249999955E-4,1.849873296E-3
